"subid","calculation","correct_calc","type","stim_1","stim_2","accuracy","math_rt","slide_response","slider_rt","trial_nr","time_elapsed"
"3280","14","14","add","9","5","1","2321","0","3276","0","88185"
"3280","22","22","add","17","5","1","2523","0","2865","1","94505"
"3280","33","33","add","22","11","1","4905","4","2890","2","102790"
"3280","96","96","mult","16","6","1","13719","14","2883","3","119918"
"3280","10","10","add","5","5","1","1552","0","2581","4","124863"
"3280","136","136","mult","17","8","1","13532","38","2418","5","141484"
"3280","132","132","mult","12","11","1","6509","15","3145","6","150923"
"3280","33","33","add","21","12","1","3530","0","2075","7","158117"
"3280","220","220","mult","20","11","1","4995","21","1875","8","165694"
"3280","80","95","mult","19","5","0","6447","35","3631","9","174523"
"3280","39","39","add","24","15","1","3036","19","2344","10","181704"
"3280","247","247","mult","19","13","1","61778","86","2673","11","246339"
"3280","264","264","mult","24","11","1","6476","20","2178","12","255998"
"3280","199","189","mult","21","9","0","11714","58","2364","13","270405"
"3280","20","20","mult","10","2","1","1633","0","2368","14","274919"
"3280","299","299","mult","23","13","1","10812","35","1981","15","288609"
"3280","140","140","mult","14","10","1","2209","3","1993","16","293310"
"3280","280","280","mult","20","14","1","3060","22","1958","17","298879"
"3280","26","26","add","13","13","1","1808","0","2196","18","303160"
"3280","72","72","mult","9","8","1","4298","0","2157","19","310175"
"3280","336","336","mult","24","14","1","17633","31","3865","20","330481"
"3280","26","26","add","16","10","1","2380","3","2618","21","337241"
"3280","23","23","add","15","8","1","3589","14","2433","22","343960"
"3280","120","120","mult","20","6","1","4097","6","1981","23","351001"
"3280","9","9","mult","9","1","1","1301","8","2011","24","354801"
"3280","330","330","mult","22","15","1","7975","34","3107","25","365301"
"3280","180","180","mult","18","10","1","1760","1","1901","26","370681"
"3280","17","17","add","14","3","1","1480","1","1880","27","374580"
"3280","104","104","mult","13","8","1","17758","58","2024","28","394732"
"3280","38","38","add","20","18","1","2186","1","1838","29","399451"
"3280","19","19","add","12","7","1","1433","1","2100","30","403232"
"3280","168","168","mult","21","8","1","8662","34","3449","31","414502"
"3280","47","47","add","24","23","1","4570","3","2271","32","423032"
"3280","126","126","mult","18","7","1","10359","29","2010","33","436173"
"3280","224","324","mult","18","18","0","132149","100","3087","34","570842"
"3280","13","13","add","10","3","1","1502","0","2089","35","575941"
"3280","34","34","add","21","13","1","2540","12","2079","36","581082"
"3280","28","28","mult","7","4","1","4142","0","2979","37","587812"
"3280","9","9","add","6","3","1","1374","0","1976","38","592685"
"3280","41","41","add","21","20","1","2011","2","2225","39","597183"
"3280","50","40","add","23","17","0","3904","0","2198","40","603823"
"3280","228","228","mult","19","12","1","19106","64","2124","41","625643"
"3280","12","12","add","11","1","1","1367","0","2518","42","629643"
"3280","29","29","add","17","12","1","2123","3","2610","43","634794"
"3280","357","357","mult","21","17","1","19341","62","2803","44","657254"
"3280","15","25","add","13","12","0","1848","15","1980","45","662414"
"3280","270","270","mult","18","15","1","11101","15","2667","46","676008"
"3280","21","21","mult","21","1","1","1493","0","2052","47","680684"
"3280","13","13","add","9","4","1","1578","1","1837","48","684824"
"3280","70","70","mult","10","7","1","2960","0","2886","49","690135"
"3280","24","24","add","18","6","1","2032","0","2601","50","695565"
"3280","25","25","add","21","4","1","1757","0","2020","51","700435"
"3280","229","289","mult","17","17","0","50030","100","2820","52","752998"
"3280","92","92","mult","23","4","1","7374","4","2488","53","763703"
"3280","30","30","add","17","13","1","1848","0","2150","54","768556"
"3280","32","32","add","18","14","1","4320","5","1537","55","775539"
"3280","456","456","mult","24","19","1","20316","17","1853","56","797907"
"3280","12","12","add","6","6","1","1447","7","2063","57","801718"
"3280","25","35","add","19","16","0","3315","4","2318","58","807607"
"3280","198","224","mult","16","14","0","78247","100","2463","59","888689"
"3280","26","26","add","21","5","1","2173","20","1856","60","893839"
"3280","36","36","add","19","17","1","4908","0","1968","61","901115"
"3280","44","44","mult","22","2","1","2738","5","2277","62","906330"
"3280","25","21","add","18","3","0","2642","0","3314","63","911762"
"3280","72","72","mult","12","6","1","8763","5","1673","64","924347"
"3280","12","12","mult","6","2","1","2023","7","2010","65","928553"
"3280","6","6","add","4","2","1","1598","0","6086","66","932670"
"3280","35","35","add","20","15","1","2172","0","2253","67","941440"
"3280","25","25","add","22","3","1","1712","0","2450","68","945920"
"3280","21","21","add","17","4","1","3063","0","2004","69","951951"
"3280","10","10","add","8","2","1","1472","1","2399","70","955941"
"3280","144","144","mult","24","6","1","12231","30","3830","71","971086"
"3280","31","31","add","24","7","1","2052","8","1888","72","977481"
"3280","180","180","mult","15","12","1","5102","3","4183","73","984991"
"3280","165","115","mult","23","5","0","15662","24","1815","74","1005351"
"3280","460","460","mult","23","20","1","6001","14","1867","75","1016062"
"3280","44","44","mult","11","4","1","3331","5","1887","76","1021772"
"3280","9","9","add","5","4","1","1266","0","2326","77","1025443"
"3280","28","28","add","22","6","1","1790","0","2343","78","1030072"
"3280","55","55","mult","11","5","1","2147","0","2452","79","1035073"
"3280","78","98","mult","14","7","0","13836","18","3091","80","1051872"
"3280","20","20","add","11","9","1","2073","18","1891","81","1057553"
"3280","20","20","add","19","1","1","1846","0","2454","82","1061803"
"3280","28","28","add","19","9","1","5172","10","2077","83","1069943"
"3280","36","36","mult","18","2","1","4825","7","2178","84","1077363"
"3280","8","8","add","7","1","1","1522","0","2888","85","1081573"
"3280","23","23","add","16","7","1","3002","3","2504","86","1087973"
"3280","24","24","add","23","1","1","2292","1","2268","87","1093283"
"3280","26","26","add","24","2","1","1961","0","2535","88","1098024"
"3280","15","15","add","8","7","1","1794","0","2382","89","1102863"
"3280","12","12","mult","4","3","1","2458","0","2277","90","1108214"
"3280","24","24","mult","8","3","1","2090","0","2217","91","1113094"
"3280","528","528","mult","24","22","1","17611","41","3194","92","1133434"
"3280","396","396","mult","22","18","1","16390","75","3429","93","1153532"
"3280","195","195","mult","15","13","1","5974","10","2141","94","1163446"
"3280","48","48","mult","8","6","1","5714","16","2228","95","1171815"
"3280","35","35","mult","7","5","1","3427","0","2539","96","1177985"
"3280","27","27","add","20","7","1","1881","3","1957","97","1182916"
"3280","220","220","mult","22","10","1","1779","0","3540","98","1187166"
"3280","1","1","mult","1","1","1","1081","0","2273","99","1192300"
"3280","30","30","add","20","10","1","1464","0","1956","100","1196546"
"3280","20","20","add","14","6","1","1322","0","2110","101","1200336"
"3280","4","4","add","3","1","1","1184","0","1932","102","1204145"
"3280","36","36","mult","12","3","1","2909","0","17400","103","1209495"
"3280","272","272","mult","17","16","1","118426","100","28313","104","1345835"
"3280","483","483","mult","23","21","1","12215","70","2796","105","1386878"
"3280","44","44","add","22","22","1","2605","14","2075","106","1392789"
"3280","28","28","mult","14","2","1","1845","9","3009","107","1397220"
"3280","42","42","add","21","21","1","2222","15","2168","108","1402961"
"3280","5","5","mult","5","1","1","1179","7","1874","109","1406820"
"3280","16","16","add","10","6","1","1683","0","2194","110","1410891"
"3280","31","31","add","16","15","1","2139","2","2440","111","1415740"
"3280","31","31","add","23","8","1","4387","8","2161","112","1423080"
"3280","17","17","mult","17","1","1","1956","6","2120","113","1427711"
"3280","22","22","add","12","10","1","1612","5","2010","114","1431961"
"3280","25","25","add","14","11","1","2006","1","2379","115","1436491"
"3280","27","27","add","19","8","1","2336","2","1898","116","1441722"
"3280","18","18","add","16","2","1","1503","1","2042","117","1445632"
"3280","380","380","mult","20","19","1","10070","2","1636","118","1458255"
"3280","39","39","add","23","16","1","4435","9","1972","119","1464841"
"3280","48","48","mult","16","3","1","6711","11","2458","120","1474033"
"3280","42","42","add","24","18","1","10398","13","2334","121","1487402"
"3280","153","153","mult","17","9","1","13191","78","2321","122","1503440"
"3280","176","176","mult","16","11","1","4633","11","1682","123","1510902"
"3280","276","276","mult","23","12","1","11971","79","1921","124","1525073"
"3280","60","60","mult","15","4","1","2388","14","1982","125","1529893"
"3280","13","13","mult","13","1","1","1461","10","3143","126","1533854"
"3280","81","81","mult","9","9","1","1756","11","1890","127","1539264"
"3280","18","18","add","13","5","1","2122","0","2110","128","1543794"
"3280","34","34","add","24","10","1","2081","4","2449","129","1548494"
"3280","60","60","mult","20","3","1","2035","4","2040","130","1553494"
"3280","36","36","add","22","14","1","6570","0","2087","131","1562624"
"3280","336","336","mult","21","16","1","7415","29","2907","132","1572643"
"3280","29","29","add","18","11","1","3563","18","2604","133","1579626"
"3280","76","76","mult","19","4","1","9193","15","1686","134","1591934"
"3280","41","41","add","22","19","1","8581","7","1811","135","1602714"
"3280","17","17","add","13","4","1","1666","0","2300","136","1606705"
"3280","19","19","add","11","8","1","1382","1","1988","137","1610905"
"3280","22","22","add","20","2","1","1263","1","1885","138","1614675"
"3280","117","117","mult","13","9","1","7181","14","2652","139","1624252"
"3280","14","14","add","12","2","1","1776","0","2313","140","1629194"
"3280","154","154","mult","22","7","1","10067","57","1914","141","1642086"
"3280","28","28","add","14","14","1","1504","1","3324","142","1646026"
"3280","72","72","mult","24","3","1","9901","17","1722","143","1659765"
"3280","75","75","mult","15","5","1","2886","2","1818","144","1664886"
"3280","16","16","add","15","1","1","1443","1","1972","145","1668656"
"3280","32","32","add","23","9","1","3737","3","1777","146","1674876"
"3280","100","100","mult","10","10","1","1432","0","2897","147","1678596"
"3280","24","24","add","15","9","1","3802","5","2684","148","1685806"
"4051","20","20","mult","20","1","1","2173","0","2445","0","39860"
"4051","216","216","mult","18","12","1","16435","51","3451","1","59246"
"4051","128","128","mult","16","8","1","13940","22","1605","2","77145"
"4051","315","315","mult","21","15","1","8151","48","2266","3","87406"
"4051","8","8","add","6","2","1","2190","0","1947","4","92371"
"4051","19","19","add","15","4","1","2125","0","3079","5","96946"
"4051","25","25","add","17","8","1","2809","0","1606","6","103342"
"4051","30","30","add","21","9","1","2205","0","1598","7","107662"
"4051","30","30","add","24","6","1","2162","0","1812","8","111928"
"4051","30","30","mult","6","5","1","2018","0","1677","9","116263"
"4051","182","182","mult","14","13","1","11116","48","1763","10","129561"
"4051","15","15","add","11","4","1","1810","0","1566","11","133642"
"4051","408","408","mult","24","17","1","17830","67","1661","12","153542"
"4051","22","22","add","16","6","1","3546","0","1422","13","159254"
"4051","10","10","mult","5","2","1","1819","0","1487","14","163001"
"4051","24","24","add","22","2","1","1559","0","1636","15","166551"
"4051","16","16","add","11","5","1","2193","0","1687","16","170886"
"4051","121","121","mult","11","11","1","1574","0","1494","17","174651"
"4051","90","90","mult","18","5","1","3475","0","1383","18","180124"
"4051","25","25","add","18","7","1","2953","0","1971","19","184968"
"4051","27","27","add","23","4","1","1811","0","1502","20","189256"
"4051","23","23","add","12","11","1","3393","0","1558","21","194658"
"4051","378","378","mult","21","18","1","7337","50","3889","22","204059"
"4051","31","31","add","19","12","1","3803","0","1709","23","212254"
"4051","42","42","mult","21","2","1","2279","0","1448","24","216748"
"4051","43","43","add","24","19","1","4410","0","1508","25","223110"
"4051","40","40","add","22","18","1","3023","0","1398","26","228147"
"4051","66","66","mult","11","6","1","2003","0","1916","27","232053"
"4051","7","7","add","4","3","1","1446","0","1413","28","235921"
"4051","210","210","mult","15","14","1","5985","0","1878","29","243825"
"4051","234","234","mult","18","13","1","13162","55","2386","30","259370"
"4051","34","34","mult","17","2","1","1717","0","1605","31","263977"
"4051","39","39","add","20","19","1","2791","0","1654","32","268877"
"4051","27","27","add","24","3","1","2857","0","2036","33","273898"
"4051","16","16","mult","16","1","1","1883","0","1717","34","278322"
"4051","18","18","add","9","9","1","1812","0","2084","35","282356"
"4051","29","29","add","22","7","1","2219","0","2042","36","287163"
"4051","23","23","add","20","3","1","1552","0","2471","37","291261"
"4051","440","440","mult","22","20","1","8760","0","1836","38","302998"
"4051","42","42","mult","7","6","1","1774","0","1952","39","307113"
"4051","21","21","add","13","8","1","2342","0","1719","40","311915"
"4051","209","209","mult","19","11","1","5180","0","2712","41","319318"
"4051","156","138","mult","23","6","0","12694","53","1328","42","335229"
"4051","46","46","add","24","22","1","18140","0","1987","43","355204"
"4051","72","72","mult","18","4","1","3457","0","1661","44","361152"
"4051","17","17","add","10","7","1","1780","0","1605","45","365098"
"4051","40","40","mult","10","4","1","2122","0","1582","46","369330"
"4051","32","32","add","19","13","1","4177","0","1691","47","375598"
"4051","31","31","add","20","11","1","2352","0","1781","48","380148"
"4051","37","37","add","21","16","1","3051","0","1488","49","385485"
"4051","255","255","mult","17","15","1","7778","52","2759","50","395259"
"4051","24","24","mult","24","1","1","1633","0","1384","51","400159"
"4051","90","90","mult","15","6","1","6797","52","3230","52","408845"
"4051","37","37","add","22","15","1","2535","0","1550","53","415115"
"4051","576","576","mult","24","24","1","4409","0","1709","54","421582"
"4051","130","130","mult","13","10","1","2457","0","1677","55","426252"
"4051","36","36","add","23","13","1","3319","0","1869","56","431758"
"4051","12","12","mult","12","1","1","1489","0","1377","57","435624"
"4051","26","26","mult","13","2","1","1692","0","1877","58","439197"
"4051","30","30","add","16","14","1","2438","0","1788","59","444019"
"4051","14","14","add","8","6","1","1411","0","1437","60","447727"
"4051","21","21","mult","7","3","1","1586","0","1463","61","451259"
"4051","29","29","add","21","8","1","3608","0","1669","62","456840"
"4051","34","34","add","20","14","1","1895","0","1607","63","460913"
"4051","144","144","mult","16","9","1","3994","0","1453","64","467019"
"4051","437","437","mult","23","19","1","15741","71","1359","65","484722"
"4051","16","16","add","14","2","1","2666","0","1319","66","489258"
"4051","18","18","add","17","1","1","1881","1","1382","67","492966"
"4051","384","384","mult","24","16","1","37839","78","3355","68","532693"
"4051","38","38","add","21","17","1","2901","0","2337","69","539454"
"4051","20","20","add","15","5","1","1835","0","1398","70","544133"
"4051","37","27","add","15","12","0","2407","0","1270","71","548444"
"4051","50","50","mult","10","5","1","5032","1","1765","72","555256"
"4051","21","21","add","14","7","1","2110","0","1844","73","559640"
"4051","12","12","add","7","5","1","1485","0","1304","74","563474"
"4051","15","15","add","12","3","1","3972","1","1485","75","591891"
"4051","9","9","mult","3","3","1","1857","0","1320","76","595741"
"4051","286","286","mult","22","13","1","15391","67","1337","77","612959"
"4051","256","256","mult","16","16","1","4107","0","1726","78","618911"
"4051","24","24","add","14","10","1","2152","0","2027","79","623295"
"4051","22","22","add","21","1","1","1505","0","1636","80","627337"
"4051","11","11","add","8","3","1","1492","0","1804","81","630972"
"4051","119","119","mult","17","7","1","4365","41","2162","82","637650"
"4051","33","33","add","18","15","1","4809","1","1636","83","645125"
"4051","384","361","mult","19","19","0","2846","0","2161","84","650114"
"4051","56","56","mult","14","4","1","12664","0","2018","85","665449"
"4051","110","110","mult","22","5","1","4590","0","1653","86","672561"
"4051","23","23","add","19","4","1","2605","0","3491","87","677327"
"4051","180","180","mult","20","9","1","4473","0","5270","88","685800"
"4051","170","170","mult","17","10","1","2692","0","1875","89","694273"
"4051","18","18","mult","9","2","1","2011","0","1501","90","698664"
"4051","22","22","add","13","9","1","5635","0","1518","91","706309"
"4051","70","70","mult","14","5","1","3148","0","1407","92","711482"
"4051","253","253","mult","23","11","1","6671","69","1007","93","720065"
"4051","8","8","mult","8","1","1","2484","0","2083","94","724066"
"4051","10","10","add","9","1","1","1692","1","1787","95","728347"
"4051","28","28","add","15","13","1","3004","3","1407","96","733644"
"4051","33","33","mult","11","3","1","1740","0","1493","97","737297"
"4051","147","147","mult","21","7","1","5682","0","1340","98","744978"
"4051","12","12","add","10","2","1","1483","0","2043","99","748310"
"4051","69","69","mult","23","3","1","5690","1","1422","100","756553"
"4051","18","18","add","12","6","1","2361","1","1628","101","760842"
"4051","160","160","mult","20","8","1","3625","1","1827","102","766603"
"4051","322","322","mult","23","14","1","5736","67","1334","103","774672"
"4051","33","33","add","17","16","1","4818","2","1804","104","781331"
"4051","27","27","add","16","11","1","2977","2","3578","105","786621"
"4051","464","264","mult","22","12","0","5948","61","1684","106","796657"
"4051","96","96","mult","12","8","1","4014","2","1536","107","802861"
"4051","44","44","add","23","21","1","2360","1","1469","108","807263"
"4051","192","192","mult","24","8","1","17689","2","1557","109","826928"
"4051","320","320","mult","20","16","1","5629","3","1692","110","834620"
"4051","91","91","mult","13","7","1","6645","2","1475","111","843463"
"4051","210","210","mult","21","10","1","3080","3","1501","112","848525"
"4051","34","34","add","17","17","1","1958","2","1501","113","852495"
"4051","38","38","add","24","14","1","3452","3","2153","114","857954"
"4051","6","6","add","5","1","1","1838","0","1458","115","862451"
"4051","14","14","add","13","1","1","1691","2","1357","116","866108"
"4051","17","17","add","9","8","1","1656","0","1248","117","869632"
"4051","19","19","add","16","3","1","1966","0","1827","118","873355"
"4051","340","340","mult","20","17","1","6370","1","1861","119","882060"
"4051","24","24","mult","6","4","1","2814","5","1733","120","887241"
"4051","11","11","add","7","4","1","1399","0","1501","121","890878"
"4051","28","28","add","18","10","1","2608","0","1399","122","895492"
"4051","126","266","mult","19","14","0","6453","0","1175","123","903849"
"4051","168","168","mult","14","12","1","13699","0","2052","124","919228"
"4051","4","4","mult","4","1","1","1351","0","1246","125","923135"
"4051","108","108","mult","12","9","1","7466","31","1158","126","932353"
"4051","165","165","mult","15","11","1","3767","27","2042","127","937787"
"4051","45","45","mult","15","3","1","1716","0","1277","128","942051"
"4051","63","63","mult","9","7","1","1919","0","1948","129","945758"
"4051","32","32","add","22","10","1","1817","0","1707","130","950031"
"4051","64","64","mult","8","8","1","1910","0","1954","131","954153"
"4051","35","35","add","23","12","1","3547","0","1843","132","960160"
"4051","28","28","add","23","5","1","2417","0","1468","133","964926"
"4051","24","24","add","19","5","1","2262","0","1302","134","969166"
"4051","88","88","mult","22","4","1","2193","1","1254","135","973168"
"4051","226","216","mult","24","9","0","8993","3","1492","136","983923"
"4051","462","462","mult","22","21","1","17620","83","2552","137","1003542"
"4051","43","43","add","23","20","1","2618","0","1957","138","1009222"
"4051","36","36","add","18","18","1","1947","4","1287","139","1013631"
"4051","57","57","mult","19","3","1","5081","22","1374","140","1020504"
"4051","26","26","add","20","6","1","1722","4","1883","141","1024108"
"4051","114","114","mult","19","6","1","5929","2","1223","142","1032428"
"4051","506","506","mult","23","22","1","27745","94","1771","143","1061904"
"4051","20","20","add","18","2","1","2165","0","1941","144","1066349"
"4051","35","35","add","24","11","1","2321","0","1302","145","1071116"
"4051","2","2","add","1","1","1","1402","0","1375","146","1074330"
"4051","26","26","add","17","9","1","3966","1","1248","147","1080177"
"4051","20","20","add","10","10","1","2017","0","1336","148","1083948"
"3847","34","34","mult","17","2","1","2754","0","2818","0","57561"
"3847","170","170","mult","17","10","1","3144","0","2399","1","64031"
"3847","16","16","mult","16","1","1","1902","0","2165","2","68840"
"3847","8","8","mult","8","1","1","1564","0","2357","3","73073"
"3847","6","6","add","4","2","1","1783","0","2569","4","77721"
"3847","10","10","add","5","5","1","1948","0","2081","5","82745"
"3847","16","16","add","10","6","1","2370","0","1955","6","87704"
"3847","40","40","add","23","17","1","2481","19","1897","7","92649"
"3847","22","22","add","20","2","1","1752","8","2253","8","96805"
"3847","41","41","add","22","19","1","4461","24","1773","9","104026"
"3847","24","24","mult","6","4","1","2137","6","2095","10","108444"
"3847","444","462","mult","22","21","0","7237","60","1735","11","118282"
"3847","340","340","mult","20","17","1","6523","52","3241","12","127048"
"3847","56","56","mult","14","4","1","5441","41","1755","13","136238"
"3847","378","378","mult","21","18","1","18435","79","1546","14","156936"
"3847","12","12","add","11","1","1","1827","0","1683","15","160816"
"3847","35","35","add","19","16","1","3937","25","1371","16","166940"
"3847","30","30","add","20","10","1","1573","0","2505","17","170392"
"3847","96","96","mult","12","8","1","4242","24","1399","18","177646"
"3847","40","40","mult","10","4","1","2084","2","1783","19","181640"
"3847","576","576","mult","24","24","1","26821","83","1537","20","210747"
"3847","361","361","mult","19","19","1","13509","100","1657","21","226302"
"3847","14","14","add","9","5","1","2132","0","2151","22","230599"
"3847","13","13","add","9","4","1","1572","20","1943","23","234831"
"3847","255","255","mult","17","15","1","8401","22","2017","24","245679"
"3847","20","20","mult","20","1","1","1581","0","2035","25","249783"
"3847","16","16","add","15","1","1","1561","0","1721","26","253887"
"3847","90","90","mult","18","5","1","3695","20","2213","27","259807"
"3847","21","21","add","18","3","1","1468","16","1665","28","263991"
"3847","13","13","add","10","3","1","1251","13","1643","29","267415"
"3847","182","182","mult","14","13","1","7024","33","1604","30","276591"
"3847","66","66","mult","11","6","1","2047","0","2029","31","280751"
"3847","25","25","add","21","4","1","1810","7","1523","32","285095"
"3847","27","27","add","20","7","1","2533","4","2537","33","289655"
"3847","4","4","add","3","1","1","1165","0","1867","34","293863"
"3847","26","26","add","24","2","1","1785","0","1737","35","298023"
"3847","241","253","mult","23","11","0","7764","18","1775","36","308031"
"3847","264","264","mult","22","12","1","9430","52","4590","37","319742"
"3847","10","10","add","8","2","1","1660","0","1817","38","326495"
"3847","10","10","mult","5","2","1","1467","7","1791","39","330286"
"3847","31","31","add","16","15","1","2413","0","2051","40","334999"
"3847","104","114","mult","19","6","0","4801","5","2621","41","342359"
"3847","33","33","mult","11","3","1","1655","11","2192","42","347143"
"3847","256","256","mult","16","16","1","9572","56","1889","43","359415"
"3847","20","20","add","11","9","1","1747","15","1861","44","363559"
"3847","72","72","mult","18","4","1","3159","20","1643","45","369087"
"3847","25","25","add","13","12","1","2328","16","1867","46","373566"
"3847","180","180","mult","20","9","1","4780","19","1505","47","380722"
"3847","20","20","add","19","1","1","1445","0","1607","48","384175"
"3847","440","440","mult","22","20","1","4300","0","2913","49","390590"
"3847","24","24","mult","24","1","1","1530","0","1749","50","395542"
"3847","24","24","add","18","6","1","1583","0","1627","51","399382"
"3847","38","38","add","20","18","1","1953","0","2411","52","403470"
"3847","144","144","mult","16","9","1","6905","55","1369","53","413294"
"3847","210","210","mult","15","14","1","5763","52","2240","54","420934"
"3847","286","286","mult","22","13","1","7328","53","1665","55","431006"
"3847","42","42","mult","21","2","1","3653","36","1631","56","436830"
"3847","41","41","add","21","20","1","1669","29","1801","57","440638"
"3847","50","50","mult","10","5","1","1679","21","1709","58","444622"
"3847","47","47","add","24","23","1","3392","39","1897","59","450230"
"3847","90","90","mult","15","6","1","4308","15","1563","60","456942"
"3847","36","36","add","22","14","1","2233","9","1945","61","461246"
"3847","9","9","mult","3","3","1","1411","18","1563","62","465110"
"3847","437","437","mult","23","19","1","13121","95","2697","63","480302"
"3847","23","23","add","15","8","1","1811","21","2533","64","485318"
"3847","224","234","mult","18","13","0","11199","64","1619","65","499558"
"3847","20","20","add","14","6","1","1641","18","2247","66","503326"
"3847","320","320","mult","20","16","1","6300","20","1765","67","512381"
"3847","17","17","add","14","3","1","1782","14","3229","68","516437"
"3847","57","57","mult","19","3","1","5294","55","1947","69","525469"
"3847","70","70","mult","14","5","1","3977","33","1773","70","531901"
"3847","9","9","add","6","3","1","1326","29","2145","71","535509"
"3847","32","32","add","23","9","1","3394","20","1631","72","541557"
"3847","42","42","mult","7","6","1","3909","8","1791","73","547605"
"3847","42","42","add","21","21","1","3735","5","2119","74","553639"
"3847","64","64","mult","8","8","1","1720","16","2223","75","561277"
"3847","128","128","mult","16","8","1","7845","11","1549","76","571853"
"3847","8","8","add","7","1","1","1183","11","1601","77","575093"
"3847","17","17","add","13","4","1","1952","24","2087","78","579149"
"3847","210","210","mult","21","10","1","1871","23","1461","79","583613"
"3847","91","91","mult","13","7","1","3714","20","1773","80","589292"
"3847","12","12","add","6","6","1","1287","11","1371","81","592861"
"3847","44","44","add","22","22","1","1345","11","1279","82","596085"
"3847","35","35","add","20","15","1","1378","14","1331","83","599245"
"3847","18","18","mult","9","2","1","1377","54","2413","84","602461"
"3847","31","31","add","24","7","1","3925","56","1661","85","609301"
"3847","165","165","mult","15","11","1","4055","51","1669","86","615525"
"3847","45","45","mult","15","3","1","1354","13","1305","87","619053"
"3847","110","110","mult","22","5","1","2635","31","1395","88","623501"
"3847","39","39","add","23","16","1","3041","25","1480","89","628445"
"3847","408","408","mult","24","17","1","27933","100","1613","90","658364"
"3847","506","506","mult","23","22","1","19743","89","1619","91","680228"
"3847","28","28","add","19","9","1","1760","11","1987","92","684116"
"3847","33","33","add","21","12","1","2449","10","1525","93","689060"
"3847","26","26","mult","13","2","1","2008","14","2721","94","693100"
"3847","48","88","mult","22","4","0","2995","16","3055","95","699324"
"3847","63","63","mult","9","7","1","2025","6","1989","96","704908"
"3847","130","130","mult","13","10","1","2207","4","1987","97","709612"
"3847","30","30","mult","6","5","1","1761","13","1753","98","713868"
"3847","9","9","add","5","4","1","1600","0","1726","99","717724"
"3847","24","24","add","15","9","1","1861","14","1525","100","721820"
"3847","216","216","mult","18","12","1","5823","57","1539","101","729676"
"3847","24","24","add","23","1","1","1345","11","1532","102","733068"
"3847","108","108","mult","12","9","1","3346","25","1949","103","738452"
"3847","160","160","mult","20","8","1","2291","22","1493","104","743196"
"3847","4","4","mult","4","1","1","1035","26","1661","105","746228"
"3847","18","18","add","16","2","1","1943","18","1879","106","750340"
"3847","18","18","add","13","5","1","1525","11","2637","107","754252"
"3847","21","21","mult","7","3","1","1575","4","1455","108","758972"
"3847","384","384","mult","24","16","1","16517","83","1599","109","777452"
"3847","14","14","add","12","2","1","1549","29","1465","110","781108"
"3847","26","26","add","13","13","1","1828","6","1379","111","784908"
"3847","32","32","add","18","14","1","3376","49","2801","112","790172"
"3847","42","42","add","24","18","1","3514","60","1507","113","796995"
"3847","30","30","add","17","13","1","2132","38","1943","114","801139"
"3847","168","168","mult","14","12","1","5348","55","2501","115","808939"
"3847","19","19","add","11","8","1","2754","22","2073","116","814699"
"3847","22","22","add","12","10","1","1586","21","1653","117","818867"
"3847","26","26","add","16","10","1","2143","26","1937","118","823171"
"3847","33","33","add","22","11","1","2375","10","1767","119","827991"
"3847","216","216","mult","24","9","1","7785","54","1725","120","838051"
"3847","147","147","mult","21","7","1","5463","69","1513","121","845747"
"3847","22","22","add","17","5","1","2236","26","1441","122","850003"
"3847","25","25","add","14","11","1","2239","9","1635","123","854187"
"3847","28","28","add","14","14","1","1634","0","2497","124","857963"
"3847","39","39","add","24","15","1","2229","15","2089","125","863195"
"3847","109","119","mult","17","7","0","5418","61","1817","126","871210"
"3847","34","34","add","24","10","1","6363","23","2471","127","879899"
"3847","15","15","add","8","7","1","2581","9","1665","128","885459"
"3847","27","27","add","19","8","1","3171","5","1473","129","890803"
"3847","12","12","mult","12","1","1","1107","0","1375","130","893891"
"3847","29","29","add","17","12","1","2602","0","1655","131","898371"
"3847","21","21","add","17","4","1","1909","16","1651","132","902443"
"3847","36","36","add","19","17","1","3385","12","1533","133","907987"
"3847","208","209","mult","19","11","0","6058","62","1849","134","916083"
"3847","315","315","mult","21","15","1","6422","65","2315","135","924858"
"3847","26","26","add","21","5","1","1661","27","1429","136","929339"
"3847","192","192","mult","24","8","1","3799","18","2085","137","935074"
"3847","25","25","add","22","3","1","1671","21","1586","138","939339"
"3847","121","121","mult","11","11","1","1676","4","1939","139","943106"
"3847","23","23","add","16","7","1","2424","8","1829","140","947978"
"3847","34","34","add","21","13","1","2507","12","1701","141","952818"
"3847","322","322","mult","23","14","1","9929","66","1327","142","964954"
"3847","29","29","add","18","11","1","4380","55","1804","143","971170"
"3847","31","31","add","23","8","1","2506","10","1609","144","975986"
"3847","266","266","mult","19","14","1","8130","59","1455","145","986234"
"3847","69","69","mult","23","3","1","3436","0","2046","146","991634"
"3847","28","28","add","22","6","1","2092","30","1729","147","996282"
"3847","138","138","mult","23","6","1","5387","18","1791","148","1003906"
"3847","19","19","add","12","7","1","2405","13","1383","149","1008610"
"4197","30","30","add","22","8","1","2392","0","3335","0","64587"
"4197","7","7","add","6","1","1","2521","0","2975","1","70949"
"4197","99","99","mult","11","9","1","2775","22","3244","2","77202"
"4197","48","48","mult","24","2","1","3353","13","3055","3","84303"
"4197","132","132","mult","22","6","1","21425","36","4060","4","109287"
"4197","24","24","add","21","3","1","3035","0","2272","5","116886"
"4197","88","88","mult","11","8","1","2426","0","2081","6","122087"
"4197","240","240","mult","24","10","1","2823","0","2279","7","127493"
"4197","68","68","mult","17","4","1","10810","45","3854","8","141085"
"4197","66","66","mult","22","3","1","6017","33","4218","9","151460"
"4197","441","441","mult","21","21","1","44670","61","2603","10","200852"
"4197","323","323","mult","19","17","1","32348","66","1851","11","236307"
"4197","40","40","mult","20","2","1","2253","2","2326","12","240914"
"4197","165","304","mult","19","16","0","82633","69","1654","13","326377"
"4197","40","40","add","21","19","1","5839","9","2025","14","334374"
"4197","85","85","mult","17","5","1","10442","17","6284","15","347345"
"4197","8","8","add","5","3","1","2157","0","2817","16","356290"
"4197","21","21","add","11","10","1","2395","0","2390","17","362005"
"4197","36","36","add","24","12","1","3479","0","1851","18","368377"
"4197","444","484","mult","22","22","0","41637","66","2849","19","412371"
"4197","21","21","add","19","2","1","3611","0","2359","20","419335"
"4197","196","198","mult","18","11","0","7822","77","2952","21","430019"
"4197","23","23","add","22","1","1","2117","0","4503","22","435591"
"4197","34","34","add","19","15","1","6244","7","2216","23","446842"
"4197","20","20","add","17","3","1","2648","0","2319","24","452210"
"4197","22","22","add","14","8","1","5372","6","3767","25","460405"
"4197","20","20","mult","5","4","1","12062","6","2161","26","476737"
"4197","16","16","add","13","3","1","2442","0","3530","27","481843"
"4197","9","9","add","7","2","1","2339","0","2533","28","488215"
"4197","32","32","add","21","11","1","5089","7","2366","29","496340"
"4197","35","35","add","18","17","1","9645","5","4180","30","508856"
"4197","19","19","mult","19","1","1","2212","0","2034","31","515751"
"4197","17","17","add","15","2","1","3206","0","1907","32","521495"
"4197","24","24","mult","12","2","1","2268","0","2738","33","526174"
"4197","35","35","add","21","14","1","7846","4","2176","34","537261"
"4197","20","20","add","16","4","1","2387","0","2595","35","542328"
"4197","252","252","mult","21","12","1","28611","60","3514","36","574038"
"4197","11","11","mult","11","1","1","1959","0","1892","37","580015"
"4197","30","30","mult","10","3","1","2639","0","2350","38","585049"
"4197","26","28","add","16","12","0","6785","0","1780","39","594688"
"4197","39","39","add","22","17","1","16366","8","1494","40","613338"
"4197","560","552","mult","24","23","0","45919","80","1511","41","661255"
"4197","338","368","mult","23","16","0","43740","70","2731","42","707009"
"4197","15","15","add","9","6","1","4040","3","2184","43","714283"
"4197","152","152","mult","19","8","1","22695","67","1662","44","739665"
"4197","32","32","mult","16","2","1","2576","1","1749","45","744407"
"4197","29","29","add","24","5","1","2387","0","2160","46","749046"
"4197","154","154","mult","14","11","1","9404","58","3324","47","761113"
"4197","19","19","add","18","1","1","2505","0","2555","48","767446"
"4197","19","19","add","10","9","1","2163","1","2247","49","772667"
"4197","135","135","mult","15","9","1","7336","19","2572","50","782753"
"4197","432","432","mult","24","18","1","21273","71","1931","51","807101"
"4197","437","207","mult","23","9","0","11302","68","1692","52","820837"
"4197","7","7","mult","7","1","1","3449","0","2009","53","826481"
"4197","5","5","add","3","2","1","1990","0","1788","54","830984"
"4197","45","45","add","24","21","1","5910","4","1662","55","839186"
"4197","242","242","mult","22","11","1","14757","62","2477","56","856109"
"4197","45","45","mult","9","5","1","6019","3","2446","57","865109"
"4197","160","160","mult","16","10","1","3885","0","1819","58","871944"
"4197","3","3","add","2","1","1","2371","0","2200","59","876638"
"4197","84","84","mult","14","6","1","22670","57","1741","60","902012"
"4197","8","8","add","4","4","1","2213","0","1740","61","906470"
"4197","360","360","mult","20","18","1","9932","23","2635","62","918646"
"4197","14","14","add","7","7","1","6226","11","1741","63","928011"
"4197","38","38","add","22","16","1","9425","5","3094","64","939683"
"4197","30","30","add","15","15","1","2221","0","1906","65","945500"
"4197","156","156","mult","13","12","1","57120","64","1978","66","1005030"
"4197","252","252","mult","18","14","1","29137","57","1701","67","1036648"
"4197","420","420","mult","21","20","1","7701","23","2366","68","1046554"
"4197","308","308","mult","22","14","1","25428","36","3482","69","1074851"
"4197","23","23","add","14","9","1","5852","29","2208","70","1084689"
"4197","108","108","mult","18","6","1","12139","40","2595","71","1099539"
"4197","30","30","add","23","7","1","2678","0","2334","72","1105316"
"4197","52","52","mult","13","4","1","27605","62","1645","73","1135759"
"4197","16","16","mult","8","2","1","4937","0","3671","74","1142845"
"4197","84","84","mult","21","4","1","27106","31","2002","75","1181114"
"4197","15","15","mult","15","1","1","6114","1","2587","76","1189734"
"4197","11","11","add","10","1","1","1964","0","2041","77","1194792"
"4197","33","33","add","20","13","1","6916","20","3039","78","1204253"
"4197","16","16","add","12","4","1","2848","1","2255","79","1210644"
"4197","28","28","add","24","4","1","4267","0","2199","80","1217669"
"4197","44","44","add","24","20","1","2505","0","2192","81","1222877"
"4197","171","171","mult","19","9","1","9132","15","1716","82","1234705"
"4197","360","360","mult","24","15","1","30742","58","2319","83","1267667"
"4197","8","8","mult","4","2","1","2292","0","1970","84","1272781"
"4197","25","25","mult","5","5","1","2641","0","1717","85","1277895"
"4197","35","25","add","15","10","0","3281","0","1669","86","1283396"
"4197","230","240","mult","16","15","0","8128","5","2525","87","1293697"
"4197","31","31","add","22","9","1","7671","21","2326","88","1304396"
"4197","36","36","mult","6","6","1","4912","0","1479","89","1312138"
"4197","37","37","add","24","13","1","5983","13","1915","90","1320104"
"4197","15","15","add","14","1","1","3107","0","3275","91","1325630"
"4197","169","196","mult","14","14","0","44334","18","2087","92","1373743"
"4197","12","12","add","9","3","1","5528","1","3094","93","1381862"
"4197","24","24","add","20","4","1","2268","0","1709","94","1387727"
"4197","140","140","mult","20","7","1","11653","18","1867","95","1401592"
"4197","24","24","add","13","11","1","5372","23","1629","96","1409335"
"4197","105","105","mult","21","5","1","4812","1","1531","97","1416280"
"4197","184","184","mult","23","8","1","24362","20","2366","98","1442677"
"4197","54","54","mult","18","3","1","10817","18","2690","99","1456363"
"4197","23","23","mult","23","1","1","1998","0","1836","100","1461555"
"4197","31","31","add","17","14","1","8266","22","2144","101","1472161"
"4197","84","84","mult","12","7","1","8528","20","2580","102","1483337"
"4197","27","27","add","18","9","1","5934","9","1850","103","1492354"
"4197","12","12","add","8","4","1","4150","0","2920","104","1498859"
"4197","200","200","mult","20","10","1","4768","0","1899","105","1507050"
"4197","204","204","mult","17","12","1","36781","55","1559","106","1546234"
"4197","65","65","mult","13","5","1","24167","39","2723","107","1572463"
"4197","13","13","add","8","5","1","2608","10","2777","108","1578297"
"4197","18","18","add","11","7","1","2790","13","1566","109","1584368"
"4197","169","169","mult","13","13","1","4289","7","2318","110","1590728"
"4197","198","418","mult","22","19","0","15350","29","1376","111","1608900"
"4197","273","273","mult","21","13","1","49450","36","1765","112","1660232"
"4197","18","18","add","10","8","1","2393","0","5477","113","1664894"
"4197","27","27","add","21","6","1","3031","0","3385","114","1673905"
"4197","38","38","add","23","15","1","3518","24","3292","115","1681312"
"4197","25","25","add","20","5","1","2554","23","2524","116","1687661"
"4197","26","26","add","19","7","1","11335","16","2295","117","1702023"
"4197","23","23","add","17","6","1","19054","58","2010","118","1723876"
"4197","22","22","add","15","7","1","3755","9","1424","119","1730145"
"4197","34","34","add","18","16","1","11926","11","1875","120","1743999"
"4197","37","37","add","19","18","1","9987","2","1852","121","1756365"
"4197","40","40","add","20","20","1","2829","0","2295","122","1761550"
"4197","21","21","add","16","5","1","3210","0","3190","123","1767559"
"4197","36","36","mult","9","4","1","3294","1","1732","124","1774546"
"4197","19","29","add","19","10","0","2426","0","2761","125","1779208"
"4197","28","28","add","17","11","1","5693","0","1812","126","1788166"
"4197","29","29","add","16","13","1","5677","4","2286","127","1796157"
"4197","56","56","mult","8","7","1","7893","0","1637","128","1806840"
"4197","3","3","mult","3","1","1","2356","0","1637","129","1811336"
"4197","60","60","mult","10","6","1","2570","0","1906","130","1816046"
"4197","32","32","add","20","12","1","2388","0","1780","131","1820843"
"4197","120","120","mult","15","8","1","5075","1","1883","132","1828202"
"4197","156","221","mult","17","13","0","10173","20","1503","133","1840762"
"4197","300","300","mult","20","15","1","29183","9","2319","134","1871953"
"4197","17","17","add","12","5","1","3559","2","1716","135","1878335"
"4197","33","33","add","23","10","1","2965","8","1448","136","1883520"
"4197","26","26","add","18","8","1","5274","23","1417","137","1890745"
"4197","168","168","mult","24","7","1","28651","22","1432","138","1921316"
"4197","32","42","mult","14","3","0","17659","34","1638","139","1940911"
"4197","13","13","add","11","2","1","3273","0","1749","140","1946325"
"4197","204","391","mult","23","17","0","39746","85","1741","141","1988322"
"4197","24","24","add","12","12","1","2821","0","2587","142","1993388"
"4197","19","19","add","13","6","1","4516","2","3507","143","2000996"
"4197","25","25","add","23","2","1","2996","0","3807","144","2008002"
"4197","112","112","mult","16","7","1","16380","36","2129","145","2028694"
"4197","120","120","mult","12","10","1","2994","1","1930","146","2034321"
"4197","35","41","add","23","18","0","12530","6","1590","147","2049285"
"4197","18","18","mult","6","3","1","5505","2","1962","148","2056883"
"4197","46","46","add","23","23","1","11628","15","2762","149","2070977"
"4104","220","220","mult","22","10","1","12143","23","5862","0","58034"
"4104","48","48","add","24","24","1","4509","8","5503","1","68918"
"4104","5","5","add","4","1","1","3060","0","3129","2","77987"
"4104","40","40","add","24","16","1","7861","20","3255","3","89482"
"4104","11","11","add","9","2","1","4262","6","2888","4","97505"
"4104","40","330","mult","22","15","0","18021","48","7398","5","118919"
"4104","19","19","add","14","5","1","3565","29","3599","6","130387"
"4104","55","55","mult","11","5","1","3790","48","2636","7","138286"
"4104","32","28","mult","7","4","0","3847","47","2557","8","145274"
"4104","29","29","add","15","14","1","4809","46","3182","9","153147"
"4104","37","37","add","20","17","1","3623","43","3319","10","160458"
"4104","14","14","add","10","4","1","3334","22","3600","11","167617"
"4104","27","27","add","14","13","1","12213","48","3528","12","183937"
"4104","14","14","add","11","3","1","8059","21","2518","13","196031"
"4104","35","35","add","22","13","1","7166","22","3183","14","206220"
"4104","49","60","mult","15","4","0","20503","49","3198","15","230413"
"4104","24","24","add","17","7","1","10257","47","4763","16","244376"
"4104","34","34","add","23","11","1","5493","28","2797","17","255138"
"4104","25","25","add","24","1","1","3188","0","2636","18","261631"
"4104","28","28","mult","14","2","1","9819","43","2574","19","274593"
"4104","6","6","add","3","3","1","2675","15","2765","20","280348"
"4104","23","23","add","13","10","1","4232","26","2677","21","287851"
"4104","17","17","add","11","6","1","4416","28","3336","22","295450"
"4104","147","357","mult","21","17","0","34881","58","2364","23","334172"
"4104","36","36","add","21","15","1","7113","25","2381","24","344154"
"4104","21","21","mult","21","1","1","3430","0","2411","25","350472"
"4104","13","13","add","7","6","1","5297","43","1913","26","358685"
"4104","129","483","mult","23","21","0","9024","70","2228","27","370127"
"4104","98","299","mult","23","13","0","19553","72","4523","28","392414"
"4104","42","42","add","23","19","1","15563","39","2636","29","413006"
"4104","9","9","mult","9","1","1","3172","0","3118","30","419322"
"4104","180","180","mult","15","12","1","20752","57","2238","31","443700"
"4104","121","117","mult","13","9","0","9949","52","1786","32","456392"
"4104","13","13","mult","13","1","1","3630","0","3239","33","462315"
"4104","10","10","add","7","3","1","3101","5","2162","34","469161"
"4104","29","29","add","23","6","1","6334","32","2980","35","478162"
"4104","100","100","mult","10","10","1","3207","26","2915","36","484856"
"4104","95","75","mult","15","5","0","12261","67","3150","37","500538"
"4104","44","44","mult","11","4","1","3542","36","2331","38","507736"
"4104","19","19","add","17","2","1","2935","14","2494","39","513509"
"4104","201","189","mult","21","9","0","37896","62","1793","40","554405"
"4104","30","30","add","18","12","1","6096","34","2710","41","562800"
"4104","120","120","mult","20","6","1","6552","46","2910","42","572568"
"4104","60","60","mult","20","3","1","4714","42","3808","43","580699"
"4104","22","22","add","19","3","1","7378","25","5141","44","592390"
"4104","36","36","add","20","16","1","4012","32","3108","45","602042"
"4104","26","26","add","15","11","1","6012","35","1975","46","611667"
"4104","44","44","mult","22","2","1","3329","47","2360","47","617476"
"4104","45","45","add","23","22","1","3541","38","2308","48","623881"
"4104","118","126","mult","18","7","0","39236","76","2669","49","665930"
"4104","34","34","add","22","12","1","4159","36","4256","50","673264"
"4104","7","7","add","5","2","1","2115","7","2504","51","680142"
"4104","18","18","add","14","4","1","2456","18","2514","52","685607"
"4104","21","21","add","15","6","1","5660","13","1933","53","694286"
"4104","26","26","add","14","12","1","6128","15","2068","54","702853"
"4104","18","18","add","15","3","1","4079","11","2535","55","709505"
"4104","5","5","mult","5","1","1","2245","4","2222","56","714792"
"4104","72","72","mult","24","3","1","32904","64","1906","57","750423"
"4104","23","23","add","18","5","1","4481","44","2016","58","757314"
"4104","41","41","add","24","17","1","23366","52","1720","59","783201"
"4104","115","115","mult","23","5","1","10954","68","2744","60","796381"
"4104","11","11","add","6","5","1","2885","28","2138","61","802517"
"4104","13","13","add","12","1","1","2178","0","3688","62","807338"
"4104","167","324","mult","18","18","0","6793","83","2185","63","818325"
"4104","31","31","add","18","13","1","11910","39","2026","64","832925"
"4104","48","48","mult","8","6","1","6567","42","1974","65","842023"
"4104","95","95","mult","19","5","1","8624","71","1990","66","853127"
"4104","36","36","mult","18","2","1","12095","55","1856","67","867718"
"4104","28","28","add","20","8","1","2689","17","3125","68","872768"
"4104","128","136","mult","17","8","0","16878","54","1866","69","893277"
"4104","136","396","mult","22","18","0","17688","78","2451","70","913337"
"4104","156","153","mult","17","9","0","32015","77","3022","71","948309"
"4104","42","42","add","22","20","1","4434","27","3470","72","956271"
"4104","180","180","mult","18","10","1","4107","38","2231","73","964355"
"4104","96","96","mult","16","6","1","9828","64","2275","74","976921"
"4104","116","336","mult","24","14","0","15016","75","2133","75","997657"
"4104","118","456","mult","24","19","0","5629","77","1715","76","1005924"
"4104","17","17","mult","17","1","1","2474","17","2469","77","1010619"
"4104","1","1","mult","1","1","1","2066","5","2819","78","1015661"
"4104","98","98","mult","14","7","1","25695","58","1624","79","1044681"
"4104","27","27","add","22","5","1","5348","32","3321","80","1052159"
"4104","17","17","add","16","1","1","2162","0","2694","81","1058148"
"4104","121","132","mult","12","11","0","4940","57","1831","82","1066288"
"4104","30","30","add","19","11","1","10043","38","3376","83","1078668"
"4104","92","92","mult","23","4","1","19996","65","1761","84","1102545"
"4104","140","140","mult","14","10","1","2823","28","2182","85","1107635"
"4104","72","72","mult","12","6","1","9232","60","2043","86","1119555"
"4104","244","264","mult","24","11","0","7152","64","2712","87","1129256"
"4104","25","25","add","16","9","1","7612","43","1890","88","1140087"
"4104","48","48","mult","16","3","1","15812","46","2795","89","1158294"
"4104","22","22","add","11","11","1","3859","28","3765","90","1165454"
"4104","132","247","mult","19","13","0","14489","78","2751","91","1184213"
"4104","240","280","mult","20","14","0","16857","75","2510","92","1204327"
"4104","390","224","mult","16","14","0","10263","81","2531","93","1217606"
"4104","21","21","add","20","1","1","2322","0","2387","94","1222965"
"4104","467","228","mult","19","12","0","6482","89","2265","95","1232340"
"4104","242","37","add","23","14","0","11666","88","2761","96","1246777"
"4104","195","270","mult","18","15","0","15428","88","2320","97","1265473"
"4104","16","16","add","9","7","1","5120","45","2366","98","1273418"
"4104","20","20","add","13","7","1","3025","21","2319","99","1279315"
"4104","104","104","mult","13","8","1","47041","71","1911","100","1329180"
"4104","290","380","mult","20","19","0","9231","86","1999","101","1340829"
"4104","246","276","mult","23","12","0","8405","93","2891","102","1351738"
"4104","12","12","mult","4","3","1","4085","42","1635","103","1359219"
"4104","71","72","mult","9","8","0","6530","43","1882","104","1367889"
"4104","39","39","add","21","18","1","9620","45","2059","105","1379898"
"4104","21","21","add","12","9","1","5190","43","3101","106","1387652"
"4104","31","31","add","21","10","1","3852","24","4408","107","1395110"
"4104","32","32","add","24","8","1","9102","43","2141","108","1409127"
"4104","73","76","mult","19","4","0","21519","58","3044","109","1433293"
"4104","24","24","add","16","8","1","11329","46","3025","110","1448172"
"4104","10","10","add","6","4","1","2712","13","2078","111","1454415"
"4104","12","12","mult","6","2","1","3163","20","2408","112","1460161"
"4104","22","22","add","18","4","1","3924","28","3428","113","1466998"
"4104","26","26","add","22","4","1","10324","22","3921","114","1481257"
"4104","32","24","mult","8","3","0","21342","48","3057","115","1507026"
"4104","168","168","mult","21","8","1","14891","74","3037","116","1525480"
"4104","26","26","add","23","3","1","9794","29","3597","117","1538816"
"4104","35","35","mult","7","5","1","4604","29","1672","118","1547522"
"4104","279","272","mult","17","16","0","20497","86","1905","119","1570196"
"4104","0","43","add","22","21","0","4052","55","2177","120","1576660"
"4104","328","528","mult","24","22","0","11999","84","2940","121","1591341"
"4104","16","16","add","8","8","1","2969","28","2110","122","1597756"
"4104","20","20","add","12","8","1","2807","2","3733","123","1603178"
"4104","300","289","mult","17","17","0","23063","90","2784","124","1630479"
"4104","230","460","mult","23","20","0","6101","54","5354","125","1639869"
"4104","15","15","add","10","5","1","2769","5","4183","126","1648498"
"4104","29","29","add","20","9","1","5720","27","2109","127","1658907"
"4104","48","32","add","16","16","0","17704","81","1756","128","1679226"
"4104","196","336","mult","21","16","0","9525","90","2686","129","1691012"
"4104","200","220","mult","20","11","0","6830","60","10015","130","1701034"
"4104","32","36","mult","12","3","0","7566","43","2408","131","1719121"
"4104","39","81","mult","9","9","0","12412","87","4225","132","1734446"
"4104","691","195","mult","15","13","0","26210","93","3487","133","1765386"
"4104","9","9","add","8","1","1","2086","0","2832","134","1771465"
"4104","20","20","mult","10","2","1","15511","12","1774","135","1790314"
"4104","33","33","add","19","14","1","5857","38","1737","136","1798450"
"4104","70","70","mult","10","7","1","12353","38","2572","137","1813046"
"4104","15","15","add","13","2","1","3626","15","2079","138","1819749"
"4104","197","33","add","24","9","0","34759","89","2258","139","1857092"
"4104","23","23","add","21","2","1","3479","0","2629","140","1863336"
"4104","28","28","add","21","7","1","42416","39","2681","141","1908888"
"4104","198","154","mult","22","7","0","12228","89","2865","142","1924304"
"4104","236","25","add","19","6","0","36865","95","2086","143","1964540"
"4104","172","176","mult","16","11","0","11939","87","2012","144","1979071"
"4104","91","38","add","19","19","0","18186","82","2522","145","1999775"
"4104","32","32","add","17","15","1","14700","41","2684","146","2017503"
"4104","27","27","add","17","10","1","3874","20","2529","147","2024568"
"4104","236","144","mult","24","6","0","15265","91","2283","148","2042868"
"4437","24","24","add","14","10","1","5523","0","7498","0","133018"
"4437","20","20","add","18","2","1","2037","0","2971","1","143059"
"4437","25","25","mult","5","5","1","2695","0","4270","2","149232"
"4437","28","28","add","23","5","1","3642","0","3223","3","157651"
"4437","18","18","add","12","6","1","2618","0","2325","4","163996"
"4437","36","36","add","23","13","1","4154","7","5265","5","170980"
"4437","16","16","add","11","5","1","2815","6","2884","6","179565"
"4437","432","432","mult","24","18","1","47851","91","5146","7","230805"
"4437","60","60","mult","10","6","1","4898","6","3460","8","241353"
"4437","38","38","add","21","17","1","11568","20","31491","9","256889"
"4437","44","44","add","23","21","1","3517","6","3325","10","292402"
"4437","35","35","add","24","11","1","3621","1","4082","11","299852"
"4437","152","156","mult","13","12","0","18583","57","5419","12","323023"
"4437","217","207","mult","23","9","0","10788","33","2937","13","339739"
"4437","14","14","add","8","6","1","4788","12","2213","14","347973"
"4437","30","30","mult","10","3","1","2245","2","3206","15","352936"
"4437","54","54","mult","18","3","1","7150","8","2458","16","363796"
"4437","308","308","mult","22","14","1","42794","79","3501","17","409552"
"4437","391","391","mult","23","17","1","94313","92","4011","18","507870"
"4437","27","27","add","16","11","1","4698","4","5320","19","517091"
"4437","20","20","add","10","10","1","3435","3","2994","20","526355"
"4437","240","240","mult","16","15","1","14431","10","2654","21","544289"
"4437","152","152","mult","19","8","1","22694","24","2618","22","570146"
"4437","19","19","add","15","4","1","2083","0","2096","23","575351"
"4437","304","304","mult","19","16","1","20943","30","4138","24","598897"
"4437","32","33","add","18","15","0","12989","7","3305","25","616530"
"4437","16","16","mult","8","2","1","2281","4","2668","26","622622"
"4437","25","25","add","18","7","1","3312","7","2900","27","629108"
"4437","420","420","mult","21","20","1","15825","18","2365","28","648338"
"4437","14","14","add","13","1","1","2556","0","2128","29","653763"
"4437","8","8","add","6","2","1","2211","0","2073","30","658606"
"4437","18","18","add","17","1","1","2366","0","2987","31","663548"
"4437","200","200","mult","20","10","1","3876","0","2088","32","670918"
"4437","46","46","add","24","22","1","3843","0","1829","33","677356"
"4437","36","36","mult","6","6","1","2161","0","1946","34","681851"
"4437","30","30","add","16","14","1","2947","0","1733","35","687249"
"4437","252","252","mult","18","14","1","30817","48","1967","36","720304"
"4437","160","160","mult","16","10","1","3762","0","1906","37","726539"
"4437","12","12","add","10","2","1","2903","0","2167","38","731853"
"4437","168","168","mult","24","7","1","10979","11","2632","39","745504"
"4437","22","22","add","16","6","1","7596","0","1717","40","756237"
"4437","43","43","add","24","19","1","13189","8","2758","41","771648"
"4437","24","24","add","22","2","1","2036","0","1781","42","776947"
"4437","12","12","add","7","5","1","7034","0","1972","43","786266"
"4437","28","28","add","15","13","1","3420","0","4548","44","792165"
"4437","17","17","add","9","8","1","3298","0","2215","45","800515"
"4437","3","3","mult","3","1","1","1760","0","1678","46","804994"
"4437","20","20","mult","5","4","1","2878","0","1702","47","810055"
"4437","56","56","mult","8","7","1","2634","0","1812","48","814896"
"4437","360","360","mult","24","15","1","93772","92","6237","49","910985"
"4437","169","169","mult","13","13","1","4621","0","2488","50","922352"
"4437","240","240","mult","24","10","1","3746","0","2907","51","929092"
"4437","204","204","mult","17","12","1","21350","54","2812","52","953853"
"4437","15","15","add","12","3","1","2025","1","2055","53","959195"
"4437","31","31","add","20","11","1","3751","1","3672","54","965507"
"4437","43","43","add","23","20","1","2959","0","2372","55","972642"
"4437","273","273","mult","21","13","1","13166","12","2302","56","988686"
"4437","24","24","add","19","5","1","3192","4","2907","57","994685"
"4437","15","15","mult","15","1","1","2365","0","2174","58","1000461"
"4437","37","37","add","21","16","1","3767","0","2119","59","1006907"
"4437","68","68","mult","17","4","1","6386","7","2497","60","1015915"
"4437","440","441","mult","21","21","0","42792","37","3696","61","1061712"
"4437","20","20","add","15","5","1","5001","0","2126","62","1070914"
"4437","52","52","mult","13","4","1","8273","8","2962","63","1081819"
"4437","29","29","add","22","7","1","7703","3","26303","64","1092991"
"4437","106","112","mult","16","7","0","9041","17","3079","65","1128844"
"4437","140","140","mult","20","7","1","5623","5","6040","66","1138054"
"4437","65","65","mult","13","5","1","10218","6","2616","67","1154818"
"4437","23","23","add","12","11","1","3709","0","2551","68","1161650"
"4437","10","10","add","9","1","1","2987","0","2000","69","1167693"
"4437","28","28","add","18","10","1","2913","0","1874","70","1173113"
"4437","264","484","mult","22","22","0","18725","33","2544","71","1194216"
"4437","418","418","mult","22","19","1","45700","100","5019","72","1242966"
"4437","84","84","mult","12","7","1","8651","0","2308","73","1257140"
"4437","38","38","add","24","14","1","4341","0","1819","74","1264294"
"4437","15","15","add","11","4","1","2167","0","2173","75","1272926"
"4437","22","22","add","21","1","1","2299","0","1678","76","1277906"
"4437","221","221","mult","17","13","1","15075","78","3492","77","1295164"
"4437","99","99","mult","11","9","1","3469","9","1969","78","1302631"
"4437","27","27","add","23","4","1","3112","0","1616","79","1308220"
"4437","35","35","add","23","12","1","3699","0","1639","80","1314040"
"4437","32","32","add","22","10","1","2990","0","1694","81","1319173"
"4437","21","21","add","13","8","1","3831","0","3303","82","1325204"
"4437","120","120","mult","15","8","1","16088","10","3578","83","1345104"
"4437","34","34","add","17","17","1","5385","6","2649","84","1354572"
"4437","23","23","add","20","3","1","1839","0","1962","85","1359564"
"4437","19","19","add","16","3","1","2161","0","1804","86","1364192"
"4437","11","11","mult","11","1","1","1625","0","2702","87","1368126"
"4437","45","45","mult","9","5","1","2623","0","1992","88","1373959"
"4437","32","32","add","19","13","1","7464","0","2299","89","1383919"
"4437","23","23","mult","23","1","1","2063","0","3072","90","1388788"
"4437","21","21","add","14","7","1","5100","0","1795","91","1397465"
"4437","32","32","mult","16","2","1","3917","0","2962","92","1403681"
"4437","66","66","mult","22","3","1","3029","0","2474","93","1410181"
"4437","18","18","mult","6","3","1","5532","0","2046","94","1418696"
"4437","37","37","add","22","15","1","5790","5","4255","95","1427038"
"4437","17","17","add","10","7","1","2254","0","2118","96","1434052"
"4437","29","29","add","21","8","1","5611","0","2425","97","1442286"
"4437","552","552","mult","24","23","1","53337","95","3853","98","1498553"
"4437","7","7","mult","7","1","1","2216","0","2104","99","1505128"
"4437","252","252","mult","21","12","1","17924","75","3996","100","1525664"
"4437","22","22","add","13","9","1","9944","33","3231","101","1540110"
"4437","34","34","add","20","14","1","4790","0","2002","102","1548639"
"4437","154","154","mult","14","11","1","21957","32","5435","103","1573103"
"4437","242","242","mult","22","11","1","27128","39","71534","104","1606170"
"4437","360","360","mult","20","18","1","8682","35","2190","105","1686894"
"4437","11","11","add","8","3","1","2159","0","2041","106","1691750"
"4437","2","2","add","1","1","1","2765","0","2569","107","1697064"
"4437","368","368","mult","23","16","1","16928","67","2517","108","1717067"
"4437","18","18","add","9","9","1","4136","0","2167","109","1724229"
"4437","105","105","mult","21","5","1","30652","77","2427","110","1757555"
"4437","33","33","add","17","16","1","4761","20","2916","111","1765248"
"4437","39","39","add","20","19","1","3903","0","4075","112","1772571"
"4437","11","11","add","7","4","1","1813","0","1907","113","1778964"
"4437","326","323","mult","19","17","0","13022","85","2854","114","1794397"
"4437","8","8","mult","4","2","1","3215","0","2293","115","1800972"
"4437","24","24","mult","12","2","1","2160","0","2191","116","1805931"
"4437","25","25","add","17","8","1","10089","19","12624","117","1818720"
"4437","16","16","add","14","2","1","2570","0","2718","118","1834419"
"4437","36","36","add","18","18","1","2859","0","3877","119","1840504"
"4437","108","108","mult","18","6","1","8028","14","1993","120","1852915"
"4437","84","84","mult","21","4","1","16153","11","1868","121","1871566"
"4437","198","198","mult","18","11","1","19428","71","2811","122","1893367"
"4437","40","40","add","22","18","1","6600","3","2323","123","1903283"
"4437","6","6","add","5","1","1","1814","0","2450","124","1907924"
"4437","300","300","mult","20","15","1","4656","0","1889","125","1915535"
"4437","30","30","add","24","6","1","2018","0","2221","126","1919947"
"4437","196","196","mult","14","14","1","25515","29","1992","127","1948192"
"4437","40","40","mult","20","2","1","2152","0","1819","128","1952841"
"4437","26","26","add","17","9","1","6011","14","2527","129","1961177"
"4437","27","27","add","15","12","1","3656","0","1803","130","1967866"
"4437","42","42","mult","14","3","1","12307","5","2520","131","1982481"
"4437","7","7","add","4","3","1","1969","0","1961","132","1987476"
"4437","31","31","add","19","12","1","7819","3","3142","133","1997763"
"4437","30","30","add","21","9","1","2418","0","2535","134","2003830"
"4437","171","171","mult","19","9","1","10110","42","2520","135","2016980"
"4437","36","36","mult","9","4","1","2784","0","3189","136","2022793"
"4437","19","19","mult","19","1","1","2214","0","3994","137","2028702"
"4437","204","184","mult","23","8","0","11337","10","3727","138","2044540"
"4437","256","132","mult","22","6","0","11099","19","4143","139","2059874"
"4437","23","23","add","19","4","1","6589","0","2401","140","2071113"
"4437","85","85","mult","17","5","1","10747","0","1733","141","2084766"
"4437","88","88","mult","11","8","1","2524","0","1914","142","2089528"
"4437","135","135","mult","15","9","1","8360","0","1623","143","2100306"
"4437","84","84","mult","14","6","1","12855","10","2317","144","2115289"
"4437","27","27","add","24","3","1","3027","0","1646","145","2121139"
"4437","48","48","mult","24","2","1","3158","0","2640","146","2126452"
"4437","120","120","mult","12","10","1","3021","0","2167","147","2132618"
"4437","26","26","add","20","6","1","2436","0","2270","148","2137726"
"4039","24","24","add","18","6","1","2307","15","5064","0","18388"
"4039","76","76","mult","19","4","1","5382","21","1413","1","29341"
"4039","41","41","add","21","20","1","1491","19","1984","2","32755"
"4039","400","528","mult","24","22","0","2122","16","1264","3","37367"
"4039","44","42","add","21","21","0","1137","18","2054","4","40274"
"4039","44","9","mult","9","1","0","781","18","2561","5","43619"
"4039","4","24","add","23","1","0","1079","17","1669","6","47768"
"4039","33","33","add","21","12","1","2588","23","2427","7","52534"
"4039","44","44","mult","11","4","1","1169","16","2012","8","56639"
"4039","166","168","mult","21","8","0","4362","22","2251","9","63522"
"4039","39","39","add","24","15","1","1664","20","1441","10","67940"
"4039","36","36","mult","18","2","1","2018","11","1600","11","71906"
"4039","20","20","add","19","1","1","1269","20","1514","12","75281"
"4039","28","28","add","22","6","1","1349","21","1733","13","78653"
"4039","276","276","mult","23","12","1","11483","11","1408","14","92378"
"4039","14","14","add","9","5","1","1314","17","2210","15","95605"
"4039","12","20","add","14","6","0","859","18","1624","16","99183"
"4039","124","34","add","21","13","0","481","20","1362","17","101796"
"4039","15","5","mult","5","1","0","513","18","1204","18","104179"
"4039","12","12","mult","6","2","1","1068","18","1189","19","106962"
"4039","22","264","mult","24","11","0","1249","19","1533","20","109909"
"4039","24","24","add","15","9","1","1589","18","1232","21","113535"
"4039","233","299","mult","23","13","0","1945","17","1355","22","117220"
"4039","222","104","mult","13","8","0","2750","17","1347","23","121833"
"4039","36","36","add","22","14","1","1892","12","1894","24","125580"
"4039","220","220","mult","20","11","1","4467","17","1378","25","132450"
"4039","221","98","mult","14","7","0","1649","15","1332","26","135987"
"4039","123","32","add","23","9","0","729","20","1591","27","138557"
"4039","124","18","add","16","2","0","476","17","1100","28","141133"
"4039","15","31","add","23","8","0","581","18","1426","29","143322"
"4039","123","22","add","17","5","0","511","17","1107","30","145767"
"4039","142","9","add","6","3","0","782","16","1680","31","148163"
"4039","13","21","mult","21","1","0","495","19","1480","32","150846"
"4039","134","132","mult","12","11","0","1090","19","1667","33","153925"
"4039","124","115","mult","23","5","0","567","16","1267","34","156668"
"4039","32","154","mult","22","7","0","1018","22","1379","35","159457"
"4039","123","72","mult","12","6","0","1132","16","2044","36","162476"
"4039","2342","100","mult","10","10","0","794","20","1209","37","165822"
"4039","123","42","add","24","18","0","557","19","1107","38","168093"
"4039","23","25","add","21","4","0","681","21","1139","39","170387"
"4039","123","20","mult","10","2","0","822","17","1205","40","172857"
"4039","234","35","mult","7","5","0","557","21","1772","41","175126"
"4039","123","12","mult","4","3","0","539","17","1633","42","177945"
"4039","23","21","add","17","4","0","496","23","1693","43","180580"
"4039","14","34","add","24","10","0","557","21","1255","44","183340"
"4039","235","19","add","12","7","0","501","22","2579","45","185603"
"4039","234","9","add","5","4","0","842","21","2524","46","189528"
"4039","234","22","add","12","10","0","690","16","1392","47","193248"
"4039","63","23","add","15","8","0","676","22","2935","48","195824"
"4039","45","17","add","13","4","0","1401","20","1461","49","200668"
"4039","34","140","mult","14","10","0","2172","15","1959","50","204810"
"4039","98","60","mult","20","3","0","2001","19","1838","51","209273"
"4039","15","15","add","8","7","1","239601","10","2177","52","451218"
"4039","244","330","mult","22","15","0","2060","18","1350","53","455963"
"4039","26","26","add","13","13","1","1400","16","1460","54","459222"
"4039","26","26","add","21","5","1","1749","19","1306","55","462939"
"4039","13","13","add","10","3","1","977","16","1539","56","465730"
"4039","104","144","mult","24","6","0","4034","13","1646","57","471808"
"4039","81","81","mult","9","9","1","1607","17","1636","58","475565"
"4039","48","48","mult","16","3","1","4690","17","1632","59","482397"
"4039","176","176","mult","16","11","1","4570","21","2259","60","489108"
"4039","13","13","add","9","4","1","7342","14","1448","61","499218"
"4039","32","32","add","18","14","1","2003","16","1874","62","503177"
"4039","30","30","add","20","10","1","1292","20","1052","63","506848"
"4039","31","31","add","16","15","1","1288","14","1382","64","509695"
"4039","380","380","mult","20","19","1","3968","20","1877","65","515553"
"4039","336","336","mult","24","14","1","10637","18","1558","66","528574"
"4039","44","44","add","22","22","1","1447","17","1323","67","532088"
"4039","17","17","mult","17","1","1","1578","19","2207","68","535498"
"4039","70","70","mult","10","7","1","2022","15","1409","69","540236"
"4039","27","27","add","20","7","1","2077","12","1588","70","544231"
"4039","55","55","mult","11","5","1","1855","13","1842","71","548179"
"4039","272","272","mult","17","16","1","11977","17","1315","72","562507"
"4039","4","4","add","3","1","1","1968","17","1387","73","566299"
"4039","14","14","add","12","2","1","1285","15","1198","74","569480"
"4039","39","39","add","23","16","1","1876","20","1587","75","609308"
"4039","95","95","mult","19","5","1","4617","17","2314","76","616020"
"4039","92","92","mult","23","4","1","3351","15","1295","77","622195"
"4039","38","38","add","20","18","1","1376","15","1539","78","625369"
"4039","483","483","mult","23","21","1","5869","10","1494","79","633283"
"4039","47","47","add","24","23","1","2622","16","1795","80","637908"
"4039","195","195","mult","15","13","1","5791","18","1326","81","646003"
"4039","50","60","mult","15","4","0","4264","14","1951","82","652100"
"4039","17","17","add","14","3","1","1967","17","1344","83","656527"
"4039","96","96","mult","16","6","1","6358","14","1616","84","664738"
"4039","120","120","mult","20","6","1","2520","18","1512","85","669383"
"4039","30","30","add","17","13","1","1451","13","1822","86","672855"
"4039","72","72","mult","9","8","1","2543","11","1364","87","677726"
"4039","10","10","add","8","2","1","1378","13","1661","88","680976"
"4039","25","25","add","13","12","1","1515","12","1430","89","684655"
"4039","460","460","mult","23","20","1","5054","19","2099","90","691648"
"4039","336","336","mult","21","16","1","20645","16","1412","91","714899"
"4039","28","28","mult","14","2","1","1510","19","1398","92","718330"
"4039","180","180","mult","15","12","1","7001","10","1429","93","727237"
"4039","228","228","mult","19","12","1","6209","16","1285","94","735383"
"4039","27","27","add","19","8","1","1704","14","1897","95","738881"
"4039","33","33","add","22","11","1","1208","16","1926","96","742495"
"4039","21","21","add","18","3","1","1247","11","1230","97","746177"
"4039","6","6","add","4","2","1","1174","15","1399","98","749089"
"4039","41","41","add","22","19","1","1738","16","1485","99","752732"
"4039","18","18","add","13","5","1","1442","17","1233","100","756168"
"4039","26","26","add","16","10","1","1652","18","2484","101","759561"
"4039","12","12","add","11","1","1","1003","16","1666","102","763557"
"4039","396","396","mult","22","18","1","9114","17","1503","103","774846"
"4039","289","289","mult","17","17","1","22032","12","1548","104","798890"
"4039","270","270","mult","18","15","1","8253","19","1970","105","809196"
"4039","22","22","add","20","2","1","1179","14","1931","106","812854"
"4039","44","44","mult","22","2","1","1258","16","1233","107","816552"
"4039","25","25","add","22","3","1","1090","16","1587","108","819385"
"4039","189","189","mult","21","9","1","7009","12","2538","109","828484"
"4039","280","280","mult","20","14","1","4919","17","1557","110","836446"
"4039","31","31","add","24","7","1","1343","22","1217","111","839851"
"4039","16","16","add","15","1","1","1272","14","1638","112","842846"
"4039","456","456","mult","24","19","1","7215","16","1377","113","852207"
"4039","72","72","mult","24","3","1","3003","22","1498","114","857096"
"4039","28","28","add","19","9","1","1947","20","1560","115","861046"
"4039","29","29","add","17","12","1","2413","17","1334","116","865527"
"4039","13","13","mult","13","1","1","1256","17","1868","117","868621"
"4039","48","48","mult","8","6","1","4660","18","1519","118","875657"
"4039","35","35","add","19","16","1","2785","18","1935","119","880470"
"4039","25","25","add","14","11","1","3116","17","1549","120","886029"
"4039","36","36","add","19","17","1","2147","14","1822","121","890235"
"4039","28","28","mult","7","4","1","1519","18","1604","122","894081"
"4039","224","224","mult","16","14","1","54116","19","3091","123","950311"
"4039","20","20","add","11","9","1","1850","15","1341","124","955761"
"4039","117","117","mult","13","9","1","12006","18","1293","125","969617"
"4039","28","28","add","14","14","1","1440","13","1677","126","972859"
"4039","146","136","mult","17","8","0","12145","16","1849","127","987189"
"4039","36","36","mult","12","3","1","10765","15","1806","128","1000312"
"4039","247","247","mult","19","13","1","10805","14","1995","129","1013426"
"4039","16","16","add","10","6","1","1510","18","1234","130","1017435"
"4039","180","180","mult","18","10","1","1706","18","1799","131","1020884"
"4039","35","35","add","20","15","1","1874","16","1437","132","1025066"
"4039","23","23","add","16","7","1","4055","17","3669","133","1031067"
"4039","10","10","add","5","5","1","1742","21","1446","134","1036982"
"4039","12","12","add","6","6","1","1180","15","1545","135","1040117"
"4039","40","40","add","23","17","1","1924","19","2264","136","1044095"
"4039","29","29","add","18","11","1","1845","16","1319","137","1048713"
"4039","75","75","mult","15","5","1","1826","13","1240","138","1052363"
"4039","126","126","mult","18","7","1","11038","17","1518","139","1065149"
"4039","26","26","add","24","2","1","1765","15","1332","140","1068939"
"4039","8","8","add","7","1","1","1212","18","2052","141","1071991"
"4039","324","324","mult","18","18","1","9424","15","1387","142","1083974"
"4039","24","24","mult","8","3","1","1555","16","1162","143","1087422"
"4039","153","153","mult","17","9","1","5941","15","1459","144","1095034"
"4039","477","357","mult","21","17","0","9785","16","1424","145","1106783"
"4039","19","19","add","11","8","1","1392","14","1413","146","1110108"
"4039","220","220","mult","22","10","1","1817","13","1407","147","1113846"
"4039","1","1","mult","1","1","1","831","17","1306","148","1116594"
"1101","29","29","add","23","6","1","1745","19","3433","0","55189"
"1101","13","13","add","7","6","1","1621","18","3568","1","60753"
"1101","29","29","add","15","14","1","1719","36","2787","2","66552"
"1101","24","24","mult","12","2","1","1287","1","2903","3","71134"
"1101","552","552","mult","24","23","1","47284","76","2236","4","121835"
"1101","191","391","mult","23","17","0","61191","100","2353","5","185766"
"1101","21","21","add","20","1","1","1694","0","2460","6","190317"
"1101","52","52","mult","13","4","1","13698","48","4349","7","206985"
"1101","252","252","mult","21","12","1","18274","64","2693","8","230120"
"1101","34","34","add","22","12","1","7487","52","5267","9","240805"
"1101","308","308","mult","22","14","1","33158","87","2588","10","279739"
"1101","120","120","mult","15","8","1","8870","42","3036","11","291702"
"1101","105","105","mult","21","5","1","5947","47","2684","12","301197"
"1101","23","23","add","21","2","1","3669","22","2318","13","308059"
"1101","273","273","mult","21","13","1","38349","62","2483","14","349238"
"1101","113","112","mult","16","7","0","22254","60","2036","15","374479"
"1101","221","221","mult","17","13","1","33902","68","2041","16","410924"
"1101","36","36","mult","9","4","1","3098","14","2685","17","416568"
"1101","65","65","mult","13","5","1","9221","46","2594","18","428981"
"1101","9","9","add","8","1","1","4529","0","2520","19","436619"
"1101","16","16","mult","8","2","1","1361","2","2695","20","441008"
"1101","216","432","mult","24","18","0","32957","64","2813","21","477167"
"1101","27","27","add","14","13","1","7021","17","2332","22","487513"
"1101","15","15","add","10","5","1","1417","0","3006","23","491768"
"1101","68","68","mult","17","4","1","6350","38","2627","24","501631"
"1101","433","43","add","22","21","0","7162","45","2353","25","511926"
"1101","36","36","add","20","16","1","3660","38","2643","26","518449"
"1101","200","200","mult","20","10","1","2027","0","2544","27","523632"
"1101","108","108","mult","18","6","1","8969","48","2925","28","535657"
"1101","204","204","mult","17","12","1","24041","69","1945","29","563134"
"1101","240","240","mult","16","15","1","26307","59","2368","30","591894"
"1101","45","45","add","23","22","1","10527","44","2034","31","605295"
"1101","36","36","mult","6","6","1","1411","0","2558","32","609249"
"1101","60","60","mult","10","6","1","1317","0","2988","33","613635"
"1101","52","42","mult","14","3","0","5689","8","3005","34","622825"
"1101","84","84","mult","14","6","1","10460","14","2542","35","636811"
"1101","15","15","add","13","2","1","1570","0","2470","36","641428"
"1101","66","66","mult","22","3","1","4902","20","2849","37","649307"
"1101","21","21","add","15","6","1","1549","4","2631","38","654211"
"1101","37","37","add","20","17","1","1598","10","2497","39","658956"
"1101","25","25","add","16","9","1","2271","9","2672","40","664231"
"1101","22","22","add","11","11","1","1783","15","2309","41","669192"
"1101","27","27","add","17","10","1","1680","9","2651","42","673687"
"1101","304","304","mult","19","16","1","34242","86","1848","43","711094"
"1101","7","7","add","5","2","1","1725","0","3019","44","715175"
"1101","33","33","add","24","9","1","5739","12","2885","45","724441"
"1101","26","26","add","23","3","1","1756","2","3008","46","729593"
"1101","35","35","add","22","13","1","7892","16","2358","47","741000"
"1101","30","30","mult","10","3","1","1385","1","2404","48","745249"
"1101","18","18","add","14","4","1","1635","3","2752","49","749797"
"1101","18","18","add","15","3","1","1353","1","4035","50","754409"
"1101","360","360","mult","24","15","1","22482","66","3249","51","781441"
"1101","140","140","mult","20","7","1","2299","8","4215","52","787494"
"1101","360","198","mult","18","11","0","21103","64","2705","53","813319"
"1101","7","7","mult","7","1","1","5046","0","23484","54","821580"
"1101","484","484","mult","22","22","1","31515","71","2555","55","877087"
"1101","37","37","add","23","14","1","3745","24","2618","56","883900"
"1101","152","152","mult","19","8","1","21295","60","2451","57","908321"
"1101","26","26","add","14","12","1","3771","7","2870","58","915049"
"1101","184","184","mult","23","8","1","7921","10","2364","59","926346"
"1101","20","20","add","13","7","1","1755","2","2936","60","930973"
"1101","11","11","add","6","5","1","1321","0","2393","61","935740"
"1101","240","240","mult","24","10","1","1995","3","2732","62","940642"
"1101","36","36","add","21","15","1","6401","23","2762","63","950289"
"1101","16","16","add","8","8","1","1243","0","3049","64","954801"
"1101","135","135","mult","15","9","1","5266","38","2746","65","963627"
"1101","169","169","mult","13","13","1","23171","58","2774","66","990050"
"1101","207","207","mult","23","9","1","9436","64","2897","67","1002766"
"1101","26","26","add","15","11","1","3780","24","2481","68","1009954"
"1101","0","252","mult","18","14","0","26551","59","4326","69","1039492"
"1101","54","54","mult","18","3","1","12766","16","2417","70","1057093"
"1101","5","5","add","4","1","1","1361","0","2653","71","1061377"
"1101","24","24","add","17","7","1","3017","3","2621","72","1067560"
"1101","31","31","add","21","10","1","2529","6","3412","73","1073216"
"1101","8","8","mult","4","2","1","1358","0","2791","74","1078498"
"1101","14","14","add","11","3","1","1712","0","3706","75","1093423"
"1101","19","19","mult","19","1","1","1327","0","2361","76","1098965"
"1101","156","156","mult","13","12","1","30269","64","2298","77","1132103"
"1101","360","360","mult","20","18","1","3635","22","3015","78","1138545"
"1101","24","24","add","16","8","1","1959","8","2262","79","1144032"
"1101","160","160","mult","16","10","1","1651","5","4560","80","1148451"
"1101","17","17","add","16","1","1","1529","0","2503","81","1155047"
"1101","28","28","add","20","8","1","1463","0","2353","82","1159529"
"1101","18","18","mult","6","3","1","1435","2","2621","83","1163829"
"1101","428","418","mult","22","19","0","26333","78","3152","84","1193290"
"1101","14","14","add","10","4","1","2776","1","8846","85","1199724"
"1101","21","21","add","12","9","1","2876","8","2267","86","1211958"
"1101","42","42","add","22","20","1","3452","26","2641","87","1218185"
"1101","85","85","mult","17","5","1","7146","27","1863","88","1228483"
"1101","84","84","mult","21","4","1","3737","24","2471","89","1234588"
"1101","441","441","mult","21","21","1","44270","79","2777","90","1281837"
"1101","42","42","add","23","19","1","10483","40","1789","91","1295604"
"1101","300","300","mult","20","15","1","4239","16","2458","92","1302136"
"1101","56","56","mult","8","7","1","8491","24","2750","93","1313595"
"1101","420","420","mult","21","20","1","3667","16","2374","94","1320518"
"1101","20","20","add","12","8","1","1570","5","2560","95","1324969"
"1101","40","40","add","24","16","1","10067","25","2475","96","1338102"
"1101","25","25","add","24","1","1","1443","4","2885","97","1342532"
"1101","38","38","add","19","19","1","5212","25","1689","98","1351138"
"1101","48","48","add","24","24","1","3393","12","3034","99","1356726"
"1101","154","154","mult","14","11","1","18170","45","3526","100","1378437"
"1101","32","32","mult","16","2","1","3111","23","2548","101","1385584"
"1101","171","171","mult","19","9","1","13922","57","1876","102","1402562"
"1101","6","6","add","3","3","1","1308","0","2330","103","1406259"
"1101","88","88","mult","11","8","1","1666","2","2842","104","1410765"
"1101","33","33","add","19","14","1","10448","46","2745","105","1424564"
"1101","39","39","add","21","18","1","7060","38","2947","106","1434881"
"1101","15","15","mult","15","1","1","1544","7","2534","107","1439880"
"1101","40","40","mult","20","2","1","1462","1","3646","108","1444390"
"1101","10","10","add","7","3","1","1372","0","2946","109","1449914"
"1101","23","23","add","13","10","1","1882","1","2572","110","1455253"
"1101","120","120","mult","12","10","1","1486","1","3511","111","1459823"
"1101","28","28","add","21","7","1","1582","0","2303","112","1465430"
"1101","32","32","add","16","16","1","1933","3","4228","113","1470177"
"1101","34","34","add","23","11","1","2003","6","2761","114","1476921"
"1101","22","22","add","19","3","1","2347","7","2653","115","1482539"
"1101","30","30","add","19","11","1","4899","13","2543","116","1490602"
"1101","32","32","add","24","8","1","1931","11","2604","117","1495589"
"1101","19","19","add","17","2","1","1429","2","2400","118","1500139"
"1101","99","99","mult","11","9","1","1449","4","2144","119","1504510"
"1101","32","32","add","17","15","1","7865","25","2804","120","1515033"
"1101","31","31","add","18","13","1","6045","26","2166","121","1524388"
"1101","20","20","mult","5","4","1","1370","0","2404","122","1528438"
"1101","10","10","add","6","4","1","1346","0","2793","123","1532694"
"1101","23","23","mult","23","1","1","1336","0","2410","124","1537334"
"1101","3","3","mult","3","1","1","1429","0","2658","125","1541687"
"1101","13","13","add","12","1","1","1192","0","2952","126","1546053"
"1101","11","11","mult","11","1","1","1158","0","2524","127","1550673"
"1101","41","41","add","24","17","1","7292","22","2608","128","1560997"
"1101","48","48","mult","24","2","1","2703","10","2344","129","1566814"
"1101","323","323","mult","19","17","1","30861","72","4455","130","1600532"
"1101","168","168","mult","24","7","1","9673","56","2590","131","1615171"
"1101","27","27","add","22","5","1","1766","11","4210","132","1620040"
"1101","368","368","mult","23","16","1","35235","91","2312","133","1659998"
"1101","25","25","add","19","6","1","3058","12","2469","134","1665875"
"1101","11","11","add","9","2","1","1263","0","2432","135","1670120"
"1101","33","132","mult","22","6","0","2074","2","2485","136","1675139"
"1101","16","16","add","9","7","1","7863","1","1935","137","1686004"
"1101","22","22","add","18","4","1","3207","4","2275","138","1691652"
"1101","19","19","add","14","5","1","1625","0","7179","139","1696064"
"1101","84","84","mult","12","7","1","3061","4","2750","140","1706814"
"1101","242","242","mult","22","11","1","46007","71","2616","141","1756084"
"1101","17","17","add","11","6","1","1724","3","2233","142","1760940"
"1101","29","29","add","20","9","1","1331","0","2399","143","1765016"
"1101","23","23","add","18","5","1","3839","9","3843","144","1771767"
"1101","45","45","mult","9","5","1","1413","0","2442","145","1777530"
"1101","616","196","mult","14","14","0","23965","73","2837","146","1804445"
"1101","26","26","add","22","4","1","2519","0","2202","147","1810310"
"1101","25","25","mult","5","5","1","1487","0","2050","148","1814506"
"1101","30","30","add","18","12","1","2480","2","2698","149","1819543"
"4456","15","15","mult","15","1","1","2984","0","4700","0","25088"
"4456","300","300","mult","20","15","1","9885","58","3845","1","40180"
"4456","16","16","mult","8","2","1","2631","30","3038","2","47163"
"4456","13","13","add","7","6","1","2094","25","2850","3","52801"
"4456","33","33","add","24","9","1","3002","26","3403","4","59159"
"4456","29","29","add","20","9","1","2334","23","3637","5","65404"
"4456","31","31","add","18","13","1","2463","32","3148","6","72007"
"4456","56","56","mult","8","7","1","4389","54","2386","7","80052"
"4456","11","11","add","6","5","1","1828","12","2716","8","84772"
"4456","10","10","add","6","4","1","1538","30","4091","9","89530"
"4456","43","43","add","22","21","1","4265","54","2495","10","98393"
"4456","444","484","mult","22","22","0","74139","100","7622","11","175531"
"4456","66","66","mult","22","3","1","2781","29","2179","12","186442"
"4456","30","30","add","18","12","1","2048","35","2231","13","191176"
"4456","48","48","mult","24","2","1","2332","20","1858","14","196245"
"4456","36","36","mult","9","4","1","2977","34","2107","15","201588"
"4456","25","25","add","19","6","1","2170","26","1707","16","206372"
"4456","26","26","add","14","12","1","2108","8","2420","17","210692"
"4456","27","27","add","17","10","1","2001","5","3360","18","215622"
"4456","135","85","mult","17","5","0","17188","63","1992","19","236679"
"4456","8","8","mult","4","2","1","1893","21","2442","20","241073"
"4456","120","120","mult","15","8","1","9041","67","2473","21","253062"
"4456","27","27","add","22","5","1","2199","9","2317","22","258241"
"4456","7","7","add","5","2","1","1540","18","1995","23","262604"
"4456","37","37","add","23","14","1","2776","23","2045","24","267880"
"4456","54","54","mult","18","3","1","6373","20","2356","25","276804"
"4456","22","22","add","18","4","1","1638","22","1764","26","281305"
"4456","242","242","mult","22","11","1","6318","33","2133","27","289892"
"4456","196","196","mult","14","14","1","19948","71","1943","28","312480"
"4456","21","21","add","15","6","1","1821","22","1680","29","316749"
"4456","420","420","mult","21","20","1","5691","0","1929","30","324623"
"4456","22","22","add","19","3","1","3140","29","2390","31","330197"
"4456","45","45","mult","9","5","1","2680","22","1955","32","335770"
"4456","179","169","mult","13","13","0","14134","63","2009","33","352366"
"4456","39","39","add","21","18","1","4128","13","1742","34","359007"
"4456","191","221","mult","17","13","0","22918","59","1705","35","384170"
"4456","37","37","add","20","17","1","3193","21","1962","36","389571"
"4456","23","23","add","21","2","1","2238","11","2907","37","394274"
"4456","24","24","mult","12","2","1","1969","23","1951","38","399654"
"4456","48","48","add","24","24","1","2060","16","1791","39","404173"
"4456","198","198","mult","18","11","1","7265","24","2665","40","413739"
"4456","472","552","mult","24","23","0","28525","72","2478","41","445432"
"4456","23","23","mult","23","1","1","2426","18","3662","42","450842"
"4456","45","45","add","23","22","1","3543","26","1888","43","458550"
"4456","60","60","mult","10","6","1","2044","13","2465","44","462989"
"4456","23","23","add","13","10","1","2821","20","2151","45","468780"
"4456","20","20","add","12","8","1","3114","20","1961","46","474550"
"4456","112","112","mult","16","7","1","8228","22","1991","47","485246"
"4456","27","27","add","14","13","1","2074","13","1875","48","489818"
"4456","42","42","add","22","20","1","2195","14","2095","49","494392"
"4456","18","18","add","15","3","1","2177","26","2093","50","499172"
"4456","116","108","mult","18","6","0","10835","71","2321","51","512606"
"4456","24","24","add","16","8","1","2148","26","1856","52","517579"
"4456","11","11","mult","11","1","1","2130","27","2436","53","522072"
"4456","15","15","add","10","5","1","1780","0","3836","54","526794"
"4456","140","140","mult","20","7","1","4290","28","2710","55","535427"
"4456","15","15","add","13","2","1","1769","24","2232","56","540412"
"4456","19","19","mult","19","1","1","1703","30","2013","57","544850"
"4456","16","16","add","8","8","1","1868","2","2264","58","549236"
"4456","323","323","mult","19","17","1","15402","82","1997","59","567406"
"4456","9","9","add","8","1","1","1456","28","2023","60","571363"
"4456","82","84","mult","12","7","0","9169","29","1879","61","583063"
"4456","25","25","mult","5","5","1","1792","14","1983","62","587239"
"4456","13","13","add","12","1","1","1819","18","2181","63","591541"
"4456","304","304","mult","19","16","1","8932","16","2014","64","603154"
"4456","42","42","add","23","19","1","3436","19","2790","65","609106"
"4456","6","6","add","3","3","1","1629","12","2349","66","614028"
"4456","84","84","mult","21","4","1","5355","25","2315","67","622235"
"4456","180","240","mult","16","15","0","8001","57","2082","68","633055"
"4456","25","30","add","19","11","0","2541","34","1926","69","638181"
"4456","381","391","mult","23","17","0","17314","78","2244","70","657925"
"4456","26","26","add","15","11","1","3362","31","2412","71","664036"
"4456","160","160","mult","16","10","1","2261","20","2810","72","669212"
"4456","32","32","add","24","8","1","2864","31","1987","73","675390"
"4456","273","273","mult","21","13","1","17051","63","2504","74","694934"
"4456","34","34","add","23","11","1","2872","25","2585","75","723871"
"4456","23","21","add","12","9","0","2379","8","2513","76","729339"
"4456","38","38","add","19","19","1","2568","28","1730","77","734923"
"4456","11","11","add","9","2","1","1987","20","2733","78","739143"
"4456","24","24","add","17","7","1","2275","23","2248","79","744654"
"4456","33","33","add","19","14","1","3129","26","1921","80","750538"
"4456","20","20","mult","5","4","1","2681","26","2381","81","755644"
"4456","16","16","add","9","7","1","2043","15","1853","82","760573"
"4456","21","21","add","20","1","1","1902","16","1781","83","764831"
"4456","200","200","mult","20","10","1","3006","24","2841","84","770125"
"4456","135","135","mult","15","9","1","6735","33","2348","85","780209"
"4456","26","26","add","22","4","1","2020","24","1722","86","785081"
"4456","19","19","add","17","2","1","2111","29","2375","87","789422"
"4456","308","308","mult","22","14","1","14209","16","1915","88","806514"
"4456","307","207","mult","23","9","0","12332","26","2338","89","821266"
"4456","84","84","mult","14","6","1","23031","24","2278","90","847143"
"4456","17","17","add","11","6","1","2143","21","2471","91","852071"
"4456","132","132","mult","22","6","1","6375","27","1950","92","861426"
"4456","7","7","mult","7","1","1","2801","9","2505","93","866681"
"4456","168","168","mult","24","7","1","12144","22","2181","94","881834"
"4456","99","99","mult","11","9","1","2662","27","2171","95","887181"
"4456","20","20","add","13","7","1","2438","19","1879","96","892298"
"4456","24","34","add","22","12","0","2476","20","1953","97","897159"
"4456","25","25","add","16","9","1","1963","17","3715","98","901578"
"4456","36","36","add","21","15","1","3948","15","2111","99","909744"
"4456","29","29","add","15","14","1","2462","24","2355","100","914821"
"4456","36","36","add","20","16","1","2812","24","2143","101","920493"
"4456","35","35","add","22","13","1","5463","26","1771","102","928604"
"4456","31","31","add","21","10","1","2770","14","1789","103","933652"
"4456","23","23","add","18","5","1","2591","20","1878","104","938538"
"4456","18","18","mult","6","3","1","2487","21","2541","105","943409"
"4456","105","105","mult","21","5","1","6839","63","1813","106","953292"
"4456","360","360","mult","20","18","1","4600","60","2089","107","960209"
"4456","40","40","add","24","16","1","2364","24","2278","108","965167"
"4456","68","68","mult","17","4","1","14960","38","1778","109","982912"
"4456","184","184","mult","23","8","1","13253","27","1818","110","998447"
"4456","22","22","add","11","11","1","1668","22","2003","111","1002441"
"4456","144","252","mult","18","14","0","30965","84","2313","112","1035916"
"4456","65","65","mult","13","5","1","20526","30","2629","113","1059259"
"4456","30","30","mult","10","3","1","1797","18","1984","114","1064191"
"4456","171","171","mult","19","9","1","18059","33","2221","115","1084738"
"4456","26","26","add","23","3","1","1901","23","2066","116","1089363"
"4456","17","17","add","16","1","1","2091","11","1928","117","1094025"
"4456","318","418","mult","22","19","0","22476","29","1978","118","1118934"
"4456","154","154","mult","14","11","1","18619","60","1823","119","1140038"
"4456","378","368","mult","23","16","0","52043","28","2151","120","1194412"
"4456","40","40","mult","20","2","1","2257","28","1940","121","1199326"
"4456","252","252","mult","21","12","1","14293","20","1771","122","1216063"
"4456","25","25","add","24","1","1","2735","15","1963","123","1221075"
"4456","28","28","add","20","8","1","2169","24","1900","124","1225710"
"4456","360","360","mult","24","15","1","10933","59","2121","125","1239051"
"4456","240","240","mult","24","10","1","2615","31","2075","126","1244293"
"4456","29","29","add","23","6","1","3300","25","2359","127","1250173"
"4456","421","441","mult","21","21","0","6935","54","2403","128","1259974"
"4456","36","36","mult","6","6","1","2833","32","1903","129","1265717"
"4456","5","5","add","4","1","1","1564","20","2240","130","1269691"
"4456","18","18","add","14","4","1","2497","32","1999","131","1274935"
"4456","52","52","mult","13","4","1","4916","28","2013","132","1282358"
"4456","42","42","mult","14","3","1","5268","26","1781","133","1290147"
"4456","432","432","mult","24","18","1","25373","91","3890","134","1317807"
"4456","14","14","add","10","4","1","2023","34","2133","135","1324227"
"4456","41","41","add","24","17","1","10370","36","1988","136","1337239"
"4456","32","32","add","16","16","1","2205","34","3589","137","1341936"
"4456","14","14","add","11","3","1","1803","25","1834","138","1347836"
"4456","32","32","add","17","15","1","2328","27","1794","139","1352506"
"4456","19","19","add","14","5","1","1990","23","2322","140","1356796"
"4456","32","32","mult","16","2","1","2250","18","2145","141","1361877"
"4456","28","28","add","21","7","1","1985","36","1897","142","1366514"
"4456","10","10","add","7","3","1","1750","26","1975","143","1370665"
"4456","194","204","mult","17","12","0","15282","66","2139","144","1388428"
"4456","152","152","mult","19","8","1","17297","23","2563","145","1408373"
"4456","157","156","mult","13","12","0","8285","27","1838","146","1419728"
"4456","120","120","mult","12","10","1","2110","27","2250","147","1424184"
"4456","88","88","mult","11","8","1","1811","4","1843","148","1428753"
"4456","3","3","mult","3","1","1","1346","15","1743","149","1432448"
"4312","18","18","add","15","3","1","1453","0","3110","0","118300"
"4312","13","13","add","12","1","1","1681","0","2741","1","123602"
"4312","84","84","mult","21","4","1","2983","13","2517","2","129833"
"4312","200","200","mult","20","10","1","1607","0","2140","3","134466"
"4312","232","432","mult","24","18","0","8972","30","3073","4","146089"
"4312","23","33","add","19","14","0","3402","18","4310","5","153075"
"4312","20","20","add","12","8","1","1426","0","2229","6","159318"
"4312","22","22","add","18","4","1","1342","0","2059","7","163396"
"4312","19","19","mult","19","1","1","1274","0","1999","8","167240"
"4312","154","154","mult","14","11","1","4471","22","1814","9","174219"
"4312","18","18","mult","6","3","1","1354","0","1952","10","177892"
"4312","28","28","add","20","8","1","1174","0","1902","11","181526"
"4312","28","28","add","21","7","1","1152","0","1920","12","185090"
"4312","25","25","add","19","6","1","1585","0","1753","13","189103"
"4312","29","29","add","15","14","1","2201","4","2244","14","193566"
"4312","33","33","add","24","9","1","2835","22","2517","15","199152"
"4312","31","31","add","18","13","1","2709","15","1738","16","204886"
"4312","36","36","mult","9","4","1","2128","6","1777","17","209263"
"4312","207","207","mult","23","9","1","13965","53","3149","18","225514"
"4312","48","48","add","24","24","1","3083","10","1698","19","232256"
"4312","32","32","mult","16","2","1","1654","6","1707","20","236118"
"4312","5","5","add","4","1","1","1043","0","2280","21","239374"
"4312","15","15","add","10","5","1","931","0","1751","22","243091"
"4312","34","34","add","22","12","1","3057","6","1730","23","248406"
"4312","251","252","mult","21","12","0","16846","57","2044","24","267489"
"4312","19","19","add","14","5","1","1248","0","2018","25","271288"
"4312","26","26","add","14","12","1","2301","2","1885","26","276113"
"4312","198","198","mult","18","11","1","8192","40","2084","27","286696"
"4312","35","35","add","22","13","1","2100","5","1606","28","291390"
"4312","181","171","mult","19","9","0","3088","15","2639","29","296594"
"4312","42","42","add","23","19","1","3381","10","2120","30","303123"
"4312","27","27","add","17","10","1","1452","3","1912","31","307202"
"4312","6","6","add","3","3","1","1787","0","2047","32","311412"
"4312","32","32","add","24","8","1","2515","0","1563","33","316482"
"4312","10","10","add","7","3","1","1287","0","2382","34","319838"
"4312","301","304","mult","19","16","0","8903","44","2814","35","331628"
"4312","221","221","mult","17","13","1","48498","88","1810","36","383449"
"4312","16","16","add","8","8","1","1673","0","2036","37","387442"
"4312","29","29","add","20","9","1","1547","4","1850","38","391532"
"4312","7","7","mult","7","1","1","1160","0","1699","39","395047"
"4312","25","25","add","16","9","1","2539","9","1577","40","399789"
"4312","40","40","mult","20","2","1","1562","0","1503","41","403437"
"4312","11","11","add","6","5","1","1857","1","2102","42","407304"
"4312","32","32","add","16","16","1","1979","0","1553","43","411895"
"4312","3","3","mult","3","1","1","1351","0","1920","44","415302"
"4312","120","120","mult","12","10","1","3631","3","1638","45","421363"
"4312","156","156","mult","13","12","1","7136","11","1518","46","430646"
"4312","300","300","mult","20","15","1","3476","28","2715","47","436146"
"4312","99","99","mult","11","9","1","2331","4","1708","48","441699"
"4312","360","360","mult","24","15","1","22762","59","1732","49","466675"
"4312","23","23","mult","23","1","1","1442","0","1945","50","470356"
"4312","48","48","mult","24","2","1","1666","1","1640","51","474475"
"4312","204","204","mult","17","12","1","6765","21","1756","52","483389"
"4312","23","23","add","21","2","1","1966","0","1696","53","487618"
"4312","252","252","mult","18","14","1","10067","43","2090","54","499890"
"4312","21","21","add","12","9","1","2645","3","2358","55","505130"
"4312","32","42","mult","14","3","0","5648","20","2459","56","513647"
"4312","273","273","mult","21","13","1","9922","26","2085","57","526536"
"4312","30","30","add","18","12","1","1761","0","1805","58","530888"
"4312","22","22","add","11","11","1","1069","0","1528","59","534267"
"4312","42","42","add","22","20","1","1375","0","1967","60","537676"
"4312","444","484","mult","22","22","0","18667","60","3089","61","558821"
"4312","160","160","mult","16","10","1","1836","0","1910","62","564255"
"4312","17","17","add","16","1","1","1267","0","1798","63","567942"
"4312","308","308","mult","22","14","1","12964","39","2143","64","583211"
"4312","360","360","mult","20","18","1","3077","11","1691","65","588938"
"4312","49","39","add","21","18","0","2652","44","3369","66","593790"
"4312","16","16","mult","8","2","1","1272","0","1816","67","598940"
"4312","442","441","mult","21","21","0","14167","59","3381","68","615433"
"4312","36","36","add","20","16","1","2190","3","2009","69","621513"
"4312","141","135","mult","15","9","0","4036","21","1640","70","628064"
